onset	duration	trial	stim_file	event	response	response_timestamp	response_recall	trial_type_cuedRecallStrict	trial_type_cuedRecallLenient	response_recognition	response_confidence	trial_type_allConf	trial_type_highConf	trial_type_aboveAvgConf	trial_type_rememberedStrictAboveAvg	trial_type_rememberedLenientAboveAvg	trial_type_rememberedStrictHigh	trial_type_rememberedLenientHigh
2.001	6.039	25	20_Trick20_short_combined_small.mp4	displayMockVid	not applicable	not applicable	not applicable	not applicable	not applicable	not applicable	not applicable	not applicable	not applicable	not applicable	not applicable	not applicable	not applicable	not applicable
8.04	26.13	25	20_Trick20_short_combined_small.mp4	displayVid	not applicable	not applicable	rope threaded through nut 	forgotten	forgotten	The magician ties rope around the nut, but is not able to remove it afterwards as it seems that the nut has shrunk.	4	forgotten	forgotten	forgotten	forgotten	forgotten	forgotten	forgotten
35.994	4.002	25	20_Trick20_short_combined_small.mp4	fixationPostVid	not applicable	not applicable	not applicable	not applicable	not applicable	not applicable	not applicable	not applicable	not applicable	not applicable	not applicable	not applicable	not applicable	not applicable
39.996	6.003	25	20_Trick20_short_combined_small.mp4	displayAnswer	31 or more	41.5839080320002	not applicable	not applicable	not applicable	not applicable	not applicable	not applicable	not applicable	not applicable	not applicable	not applicable	not applicable	not applicable
45.999	0.05	25	20_Trick20_short_combined_small.mp4	fixationPostAnswer	not applicable	not applicable	not applicable	not applicable	not applicable	not applicable	not applicable	not applicable	not applicable	not applicable	not applicable	not applicable	not applicable	not applicable
46.049	5.954	25	20_Trick20_short_combined_small.mp4	displayCuriosity	3	49.2616201319979	not applicable	not applicable	not applicable	not applicable	not applicable	not applicable	not applicable	not applicable	not applicable	not applicable	not applicable	not applicable
52.003	8.001	25	20_Trick20_short_combined_small.mp4	fixationPostCuriosity	not applicable	not applicable	not applicable	not applicable	not applicable	not applicable	not applicable	not applicable	not applicable	not applicable	not applicable	not applicable	not applicable	not applicable
61.994	6.028	26	10_S27_combined_small.mp4	displayMockVid	not applicable	not applicable	not applicable	not applicable	not applicable	not applicable	not applicable	not applicable	not applicable	not applicable	not applicable	not applicable	not applicable	not applicable
68.022	31.58	26	10_S27_combined_small.mp4	displayVid	not applicable	not applicable	water was poured in both cups and then from one to the other so all water in one cup. the cup was then turned over but no water fell out / it appeared empty	remembered	remembered	The magician pours water into a cup from the bottle and then pours the water into another cup but when he tips it upside down, no water spills out.	5	remembered	remembered	remembered	remembered	remembered	remembered	remembered
100.004	4	26	10_S27_combined_small.mp4	fixationPostVid	not applicable	not applicable	not applicable	not applicable	not applicable	not applicable	not applicable	not applicable	not applicable	not applicable	not applicable	not applicable	not applicable	not applicable
104.004	6	26	10_S27_combined_small.mp4	displayAnswer	21 to 30	104.878010854998	not applicable	not applicable	not applicable	not applicable	not applicable	not applicable	not applicable	not applicable	not applicable	not applicable	not applicable	not applicable
110.004	0.049	26	10_S27_combined_small.mp4	fixationPostAnswer	not applicable	not applicable	not applicable	not applicable	not applicable	not applicable	not applicable	not applicable	not applicable	not applicable	not applicable	not applicable	not applicable	not applicable
110.053	5.948	26	10_S27_combined_small.mp4	displayCuriosity	6	113.183113997999	not applicable	not applicable	not applicable	not applicable	not applicable	not applicable	not applicable	not applicable	not applicable	not applicable	not applicable	not applicable
116.001	4.003	26	10_S27_combined_small.mp4	fixationPostCuriosity	not applicable	not applicable	not applicable	not applicable	not applicable	not applicable	not applicable	not applicable	not applicable	not applicable	not applicable	not applicable	not applicable	not applicable
122.002	6.037	27	23_K10_combined_small.mp4	displayMockVid	not applicable	not applicable	not applicable	not applicable	not applicable	not applicable	not applicable	not applicable	not applicable	not applicable	not applicable	not applicable	not applicable	not applicable
128.039	23.403	27	23_K10_combined_small.mp4	displayVid	not applicable	not applicable	one pin moved along the top of the other as soon as it reached the end it rapidly fell and connected with the other so that they were linked without opening either pin	remembered	remembered	Although there are two safety pins at the beginning, they are magically melt together.	4	forgotten	forgotten	forgotten	remembered	remembered	remembered	remembered
151.993	4.003	27	23_K10_combined_small.mp4	fixationPostVid	not applicable	not applicable	not applicable	not applicable	not applicable	not applicable	not applicable	not applicable	not applicable	not applicable	not applicable	not applicable	not applicable	not applicable
155.996	6.005	27	23_K10_combined_small.mp4	displayAnswer	0 to 10	157.224165053998	not applicable	not applicable	not applicable	not applicable	not applicable	not applicable	not applicable	not applicable	not applicable	not applicable	not applicable	not applicable
162	0.049	27	23_K10_combined_small.mp4	fixationPostAnswer	not applicable	not applicable	not applicable	not applicable	not applicable	not applicable	not applicable	not applicable	not applicable	not applicable	not applicable	not applicable	not applicable	not applicable
162.05	5.952	27	23_K10_combined_small.mp4	displayCuriosity	6	165.033811008001	not applicable	not applicable	not applicable	not applicable	not applicable	not applicable	not applicable	not applicable	not applicable	not applicable	not applicable	not applicable
168.001	4.001	27	23_K10_combined_small.mp4	fixationPostCuriosity	not applicable	not applicable	not applicable	not applicable	not applicable	not applicable	not applicable	not applicable	not applicable	not applicable	not applicable	not applicable	not applicable	not applicable
173.992	6.041	28	32_K16_short_combined_small.mp4	displayMockVid	not applicable	not applicable	not applicable	not applicable	not applicable	not applicable	not applicable	not applicable	not applicable	not applicable	not applicable	not applicable	not applicable	not applicable
180.033	31.419	28	32_K16_short_combined_small.mp4	displayVid	not applicable	not applicable	all the cards were turned blank	forgotten	forgotten	The volunteer selects and signs a card that is placed in the middle of the deck, but then appears on the top of it.	2	remembered	forgotten	forgotten	forgotten	forgotten	forgotten	forgotten
212.002	4.001	28	32_K16_short_combined_small.mp4	fixationPostVid	not applicable	not applicable	not applicable	not applicable	not applicable	not applicable	not applicable	not applicable	not applicable	not applicable	not applicable	not applicable	not applicable	not applicable
216.003	5.998	28	32_K16_short_combined_small.mp4	displayAnswer	11 to 20	217.798807304	not applicable	not applicable	not applicable	not applicable	not applicable	not applicable	not applicable	not applicable	not applicable	not applicable	not applicable	not applicable
222.001	0.05	28	32_K16_short_combined_small.mp4	fixationPostAnswer	not applicable	not applicable	not applicable	not applicable	not applicable	not applicable	not applicable	not applicable	not applicable	not applicable	not applicable	not applicable	not applicable	not applicable
222.051	5.947	28	32_K16_short_combined_small.mp4	displayCuriosity	5	223.209784082999	not applicable	not applicable	not applicable	not applicable	not applicable	not applicable	not applicable	not applicable	not applicable	not applicable	not applicable	not applicable
227.998	4.002	28	32_K16_short_combined_small.mp4	fixationPostCuriosity	not applicable	not applicable	not applicable	not applicable	not applicable	not applicable	not applicable	not applicable	not applicable	not applicable	not applicable	not applicable	not applicable	not applicable
234.001	6.035	29	34_Trick38_combined_small.mp4	displayMockVid	not applicable	not applicable	not applicable	not applicable	not applicable	not applicable	not applicable	not applicable	not applicable	not applicable	not applicable	not applicable	not applicable	not applicable
240.037	27.405	29	34_Trick38_combined_small.mp4	displayVid	not applicable	not applicable	green towel was scrunshed up and came out of the other hand as red	remembered	remembered	The magician closes one fist around a silk handkerchief and makes it disappear. Then, he makes it appear in his other hand.	3	remembered	forgotten	forgotten	remembered	remembered	remembered	remembered
267.994	6.004	29	34_Trick38_combined_small.mp4	fixationPostVid	not applicable	not applicable	not applicable	not applicable	not applicable	not applicable	not applicable	not applicable	not applicable	not applicable	not applicable	not applicable	not applicable	not applicable
273.998	6.003	29	34_Trick38_combined_small.mp4	displayAnswer	21 to 30	276.459598816	not applicable	not applicable	not applicable	not applicable	not applicable	not applicable	not applicable	not applicable	not applicable	not applicable	not applicable	not applicable
280.001	0.049	29	34_Trick38_combined_small.mp4	fixationPostAnswer	not applicable	not applicable	not applicable	not applicable	not applicable	not applicable	not applicable	not applicable	not applicable	not applicable	not applicable	not applicable	not applicable	not applicable
280.05	5.95	29	34_Trick38_combined_small.mp4	displayCuriosity	4	283.590977005999	not applicable	not applicable	not applicable	not applicable	not applicable	not applicable	not applicable	not applicable	not applicable	not applicable	not applicable	not applicable
286	4	29	34_Trick38_combined_small.mp4	fixationPostCuriosity	not applicable	not applicable	not applicable	not applicable	not applicable	not applicable	not applicable	not applicable	not applicable	not applicable	not applicable	not applicable	not applicable	not applicable
291.993	6.041	30	05_K4_combined_small.mp4	displayMockVid	not applicable	not applicable	not applicable	not applicable	not applicable	not applicable	not applicable	not applicable	not applicable	not applicable	not applicable	not applicable	not applicable	not applicable
298.034	31.163	30	05_K4_combined_small.mp4	displayVid	not applicable	not applicable	rubix cube was thrown and then when caught by the magician all squares were moved to the right place and the rubix cube was completed	remembered	remembered	The magician solves the rubix cube by spinning it in the air.	5	remembered	remembered	remembered	remembered	remembered	remembered	remembered
329.989	4.002	30	05_K4_combined_small.mp4	fixationPostVid	not applicable	not applicable	not applicable	not applicable	not applicable	not applicable	not applicable	not applicable	not applicable	not applicable	not applicable	not applicable	not applicable	not applicable
333.992	6.004	30	05_K4_combined_small.mp4	displayAnswer	0 to 10	334.601567651	not applicable	not applicable	not applicable	not applicable	not applicable	not applicable	not applicable	not applicable	not applicable	not applicable	not applicable	not applicable
339.995	0.05	30	05_K4_combined_small.mp4	fixationPostAnswer	not applicable	not applicable	not applicable	not applicable	not applicable	not applicable	not applicable	not applicable	not applicable	not applicable	not applicable	not applicable	not applicable	not applicable
340.046	5.954	30	05_K4_combined_small.mp4	displayCuriosity	5	341.162175768	not applicable	not applicable	not applicable	not applicable	not applicable	not applicable	not applicable	not applicable	not applicable	not applicable	not applicable	not applicable
346	3.999	30	05_K4_combined_small.mp4	fixationPostCuriosity	not applicable	not applicable	not applicable	not applicable	not applicable	not applicable	not applicable	not applicable	not applicable	not applicable	not applicable	not applicable	not applicable	not applicable
352	6.027	31	31_K3_combined_small.mp4	displayMockVid	not applicable	not applicable	not applicable	not applicable	not applicable	not applicable	not applicable	not applicable	not applicable	not applicable	not applicable	not applicable	not applicable	not applicable
358.027	25.898	31	31_K3_combined_small.mp4	displayVid	not applicable	not applicable	no recall	forgotten	forgotten	The magician changes the shape of the leaf.	1	forgotten	forgotten	forgotten	forgotten	forgotten	forgotten	forgotten
383.994	4.003	31	31_K3_combined_small.mp4	fixationPostVid	not applicable	not applicable	not applicable	not applicable	not applicable	not applicable	not applicable	not applicable	not applicable	not applicable	not applicable	not applicable	not applicable	not applicable
387.996	6.003	31	31_K3_combined_small.mp4	displayAnswer	21 to 30	388.961745229	not applicable	not applicable	not applicable	not applicable	not applicable	not applicable	not applicable	not applicable	not applicable	not applicable	not applicable	not applicable
394	0.049	31	31_K3_combined_small.mp4	fixationPostAnswer	not applicable	not applicable	not applicable	not applicable	not applicable	not applicable	not applicable	not applicable	not applicable	not applicable	not applicable	not applicable	not applicable	not applicable
394.049	5.95	31	31_K3_combined_small.mp4	displayCuriosity	5	394.991945742	not applicable	not applicable	not applicable	not applicable	not applicable	not applicable	not applicable	not applicable	not applicable	not applicable	not applicable	not applicable
399.999	7.995	31	31_K3_combined_small.mp4	fixationPostCuriosity	not applicable	not applicable	not applicable	not applicable	not applicable	not applicable	not applicable	not applicable	not applicable	not applicable	not applicable	not applicable	not applicable	not applicable
409.996	6.023	32	18_Trick4_combined_small.mp4	displayMockVid	not applicable	not applicable	not applicable	not applicable	not applicable	not applicable	not applicable	not applicable	not applicable	not applicable	not applicable	not applicable	not applicable	not applicable
416.019	47.814	32	18_Trick4_combined_small.mp4	displayVid	not applicable	not applicable	phone was trapped inside balloon	remembered	remembered	The magician puts the mobile phone inside the balloon with a simple gesture of his hands.	4	remembered	remembered	remembered	remembered	remembered	remembered	remembered
464	3.999	32	18_Trick4_combined_small.mp4	fixationPostVid	not applicable	not applicable	not applicable	not applicable	not applicable	not applicable	not applicable	not applicable	not applicable	not applicable	not applicable	not applicable	not applicable	not applicable
467.998	6	32	18_Trick4_combined_small.mp4	displayAnswer	11 to 20	470.334165764998	not applicable	not applicable	not applicable	not applicable	not applicable	not applicable	not applicable	not applicable	not applicable	not applicable	not applicable	not applicable
473.998	0.049	32	18_Trick4_combined_small.mp4	fixationPostAnswer	not applicable	not applicable	not applicable	not applicable	not applicable	not applicable	not applicable	not applicable	not applicable	not applicable	not applicable	not applicable	not applicable	not applicable
474.047	5.949	32	18_Trick4_combined_small.mp4	displayCuriosity	6	476.52609331	not applicable	not applicable	not applicable	not applicable	not applicable	not applicable	not applicable	not applicable	not applicable	not applicable	not applicable	not applicable
479.997	4.001	32	18_Trick4_combined_small.mp4	fixationPostCuriosity	not applicable	not applicable	not applicable	not applicable	not applicable	not applicable	not applicable	not applicable	not applicable	not applicable	not applicable	not applicable	not applicable	not applicable
485.998	6.025	33	13_Trick6_short_combined_small.mp4	displayMockVid	not applicable	not applicable	not applicable	not applicable	not applicable	not applicable	not applicable	not applicable	not applicable	not applicable	not applicable	not applicable	not applicable	not applicable
492.023	37.657	33	13_Trick6_short_combined_small.mp4	displayVid	not applicable	not applicable	no recall	forgotten	forgotten	The magician puts a ball under the cup, which then turns into a larger ball and then becomes an egg.	3	remembered	forgotten	forgotten	forgotten	forgotten	forgotten	forgotten
529.999	4.001	33	13_Trick6_short_combined_small.mp4	fixationPostVid	not applicable	not applicable	not applicable	not applicable	not applicable	not applicable	not applicable	not applicable	not applicable	not applicable	not applicable	not applicable	not applicable	not applicable
533.999	5.998	33	13_Trick6_short_combined_small.mp4	displayAnswer	11 to 20	535.732191710998	not applicable	not applicable	not applicable	not applicable	not applicable	not applicable	not applicable	not applicable	not applicable	not applicable	not applicable	not applicable
539.997	0.049	33	13_Trick6_short_combined_small.mp4	fixationPostAnswer	not applicable	not applicable	not applicable	not applicable	not applicable	not applicable	not applicable	not applicable	not applicable	not applicable	not applicable	not applicable	not applicable	not applicable
540.046	5.948	33	13_Trick6_short_combined_small.mp4	displayCuriosity	4	542.626442091998	not applicable	not applicable	not applicable	not applicable	not applicable	not applicable	not applicable	not applicable	not applicable	not applicable	not applicable	not applicable
545.994	4.003	33	13_Trick6_short_combined_small.mp4	fixationPostCuriosity	not applicable	not applicable	not applicable	not applicable	not applicable	not applicable	not applicable	not applicable	not applicable	not applicable	not applicable	not applicable	not applicable	not applicable
551.997	6.036	34	08_S12_combined_small.mp4	displayMockVid	not applicable	not applicable	not applicable	not applicable	not applicable	not applicable	not applicable	not applicable	not applicable	not applicable	not applicable	not applicable	not applicable	not applicable
558.032	41.897	34	08_S12_combined_small.mp4	displayVid	not applicable	not applicable	hole was punched in the card the hole was then moved along the card by magicians fingers and then wiped off the card	remembered	remembered	The magician punches a hole in the card. He then moves the hole from one corner to another before finally revealing that it is actually a black spot on the card.	5	remembered	remembered	remembered	remembered	remembered	remembered	remembered
599.998	3.998	34	08_S12_combined_small.mp4	fixationPostVid	not applicable	not applicable	not applicable	not applicable	not applicable	not applicable	not applicable	not applicable	not applicable	not applicable	not applicable	not applicable	not applicable	not applicable
603.996	6	34	08_S12_combined_small.mp4	displayAnswer	31 or more	605.367214023998	not applicable	not applicable	not applicable	not applicable	not applicable	not applicable	not applicable	not applicable	not applicable	not applicable	not applicable	not applicable
609.996	0.05	34	08_S12_combined_small.mp4	fixationPostAnswer	not applicable	not applicable	not applicable	not applicable	not applicable	not applicable	not applicable	not applicable	not applicable	not applicable	not applicable	not applicable	not applicable	not applicable
610.045	5.948	34	08_S12_combined_small.mp4	displayCuriosity	6	611.771825756001	not applicable	not applicable	not applicable	not applicable	not applicable	not applicable	not applicable	not applicable	not applicable	not applicable	not applicable	not applicable
615.994	10.002	34	08_S12_combined_small.mp4	fixationPostCuriosity	not applicable	not applicable	not applicable	not applicable	not applicable	not applicable	not applicable	not applicable	not applicable	not applicable	not applicable	not applicable	not applicable	not applicable
627.986	6.023	35	19_H17_combined_small.mp4	displayMockVid	not applicable	not applicable	not applicable	not applicable	not applicable	not applicable	not applicable	not applicable	not applicable	not applicable	not applicable	not applicable	not applicable	not applicable
634.009	46.615	35	19_H17_combined_small.mp4	displayVid	not applicable	not applicable	sticks went into the slicer device and were snapped in half by the blade. Participant put finger in slicer device but it was not cut	remembered	remembered	The magician uses a guillotine to slice breadsticks, but not the volunteer's finger.	6	remembered	remembered	remembered	remembered	remembered	remembered	remembered
681.992	4.003	35	19_H17_combined_small.mp4	fixationPostVid	not applicable	not applicable	not applicable	not applicable	not applicable	not applicable	not applicable	not applicable	not applicable	not applicable	not applicable	not applicable	not applicable	not applicable
685.995	5.999	35	19_H17_combined_small.mp4	displayAnswer	11 to 20	689.684849272999	not applicable	not applicable	not applicable	not applicable	not applicable	not applicable	not applicable	not applicable	not applicable	not applicable	not applicable	not applicable
691.994	0.05	35	19_H17_combined_small.mp4	fixationPostAnswer	not applicable	not applicable	not applicable	not applicable	not applicable	not applicable	not applicable	not applicable	not applicable	not applicable	not applicable	not applicable	not applicable	not applicable
692.044	5.951	35	19_H17_combined_small.mp4	displayCuriosity	5	694.671254224999	not applicable	not applicable	not applicable	not applicable	not applicable	not applicable	not applicable	not applicable	not applicable	not applicable	not applicable	not applicable
697.996	3.994	35	19_H17_combined_small.mp4	fixationPostCuriosity	not applicable	not applicable	not applicable	not applicable	not applicable	not applicable	not applicable	not applicable	not applicable	not applicable	not applicable	not applicable	not applicable	not applicable
703.991	6.039	36	07_K2_combined_small.mp4	displayMockVid	not applicable	not applicable	not applicable	not applicable	not applicable	not applicable	not applicable	not applicable	not applicable	not applicable	not applicable	not applicable	not applicable	not applicable
710.031	27.214	36	07_K2_combined_small.mp4	displayVid	not applicable	not applicable	book was opened and all the small objects on the pages became 3D and fell out. the pages then looked blank with empty yellow boxes.	remembered	remembered	The sweets shown on the pages disappear.	5	forgotten	forgotten	forgotten	remembered	remembered	remembered	remembered
737.995	9.995	36	07_K2_combined_small.mp4	fixationPostVid	not applicable	not applicable	not applicable	not applicable	not applicable	not applicable	not applicable	not applicable	not applicable	not applicable	not applicable	not applicable	not applicable	not applicable
747.99	6.004	36	07_K2_combined_small.mp4	displayAnswer	11 to 20	749.512973086999	not applicable	not applicable	not applicable	not applicable	not applicable	not applicable	not applicable	not applicable	not applicable	not applicable	not applicable	not applicable
753.994	0.05	36	07_K2_combined_small.mp4	fixationPostAnswer	not applicable	not applicable	not applicable	not applicable	not applicable	not applicable	not applicable	not applicable	not applicable	not applicable	not applicable	not applicable	not applicable	not applicable
754.043	5.95	36	07_K2_combined_small.mp4	displayCuriosity	5	755.972986656001	not applicable	not applicable	not applicable	not applicable	not applicable	not applicable	not applicable	not applicable	not applicable	not applicable	not applicable	not applicable
759.994	4	36	07_K2_combined_small.mp4	fixationPostCuriosity	not applicable	not applicable	not applicable	not applicable	not applicable	not applicable	not applicable	not applicable	not applicable	not applicable	not applicable	not applicable	not applicable	not applicable
