onset	duration	trial	stim_file	event	response	response_timestamp	response_recall	trial_type_cuedRecallStrict	trial_type_cuedRecallLenient	response_recognition	response_confidence	trial_type_allConf	trial_type_highConf	trial_type_aboveAvgConf	trial_type_rememberedStrictAboveAvg	trial_type_rememberedLenientAboveAvg	trial_type_rememberedStrictHigh	trial_type_rememberedLenientHigh
1.991	6	13	05_K4_combined_small.mp4	displayMockVid	not applicable	not applicable	not applicable	not applicable	not applicable	not applicable	not applicable	not applicable	not applicable	not applicable	not applicable	not applicable	not applicable	not applicable
7.991	31.22	13	05_K4_combined_small.mp4	displayVid	not applicable	not applicable	magician would throw the rubic's cube in the air and each time it will come with sides coloured differently e.g the whole side was green 	remembered	remembered	The magician solves the rubix cube by spinning it in the air.	6	remembered	remembered	remembered	remembered	remembered	remembered	remembered
39.994	5.996	13	05_K4_combined_small.mp4	fixationPostVid	not applicable	not applicable	not applicable	not applicable	not applicable	not applicable	not applicable	not applicable	not applicable	not applicable	not applicable	not applicable	not applicable	not applicable
45.99	6.001	13	05_K4_combined_small.mp4	displayAnswer	11 to 20	46.6692431699994	not applicable	not applicable	not applicable	not applicable	not applicable	not applicable	not applicable	not applicable	not applicable	not applicable	not applicable	not applicable
51.991	0.045	13	05_K4_combined_small.mp4	fixationPostAnswer	not applicable	not applicable	not applicable	not applicable	not applicable	not applicable	not applicable	not applicable	not applicable	not applicable	not applicable	not applicable	not applicable	not applicable
52.036	5.954	13	05_K4_combined_small.mp4	displayCuriosity	6	54.7610483099998	not applicable	not applicable	not applicable	not applicable	not applicable	not applicable	not applicable	not applicable	not applicable	not applicable	not applicable	not applicable
57.99	4	13	05_K4_combined_small.mp4	fixationPostCuriosity	not applicable	not applicable	not applicable	not applicable	not applicable	not applicable	not applicable	not applicable	not applicable	not applicable	not applicable	not applicable	not applicable	not applicable
63.995	6.039	14	19_H17_combined_small.mp4	displayMockVid	not applicable	not applicable	not applicable	not applicable	not applicable	not applicable	not applicable	not applicable	not applicable	not applicable	not applicable	not applicable	not applicable	not applicable
70.035	46.608	14	19_H17_combined_small.mp4	displayVid	not applicable	not applicable	magician cut the sticks in half with a tool (the tool had a round hole). then he put assistants finger into the same hole but it did not get cut in half	remembered	remembered	The magician uses a guillotine to slice breadsticks, but not the volunteer's finger.	6	remembered	remembered	remembered	remembered	remembered	remembered	remembered
117.991	3.998	14	19_H17_combined_small.mp4	fixationPostVid	not applicable	not applicable	not applicable	not applicable	not applicable	not applicable	not applicable	not applicable	not applicable	not applicable	not applicable	not applicable	not applicable	not applicable
121.989	6.001	14	19_H17_combined_small.mp4	displayAnswer	31 or more	122.614351279	not applicable	not applicable	not applicable	not applicable	not applicable	not applicable	not applicable	not applicable	not applicable	not applicable	not applicable	not applicable
127.99	0.05	14	19_H17_combined_small.mp4	fixationPostAnswer	not applicable	not applicable	not applicable	not applicable	not applicable	not applicable	not applicable	not applicable	not applicable	not applicable	not applicable	not applicable	not applicable	not applicable
128.04	5.949	14	19_H17_combined_small.mp4	displayCuriosity	6	130.967688738994	not applicable	not applicable	not applicable	not applicable	not applicable	not applicable	not applicable	not applicable	not applicable	not applicable	not applicable	not applicable
133.989	4	14	19_H17_combined_small.mp4	fixationPostCuriosity	not applicable	not applicable	not applicable	not applicable	not applicable	not applicable	not applicable	not applicable	not applicable	not applicable	not applicable	not applicable	not applicable	not applicable
140	6.039	15	09_S11_combined_small.mp4	displayMockVid	not applicable	not applicable	not applicable	not applicable	not applicable	not applicable	not applicable	not applicable	not applicable	not applicable	not applicable	not applicable	not applicable	not applicable
146.039	24.419	15	09_S11_combined_small.mp4	displayVid	not applicable	not applicable	no recall	forgotten	forgotten	The magician uses the coin to slice the cigarette, but it is still intact afterwards.	6	forgotten	forgotten	forgotten	forgotten	forgotten	forgotten	forgotten
172.008	9.998	15	09_S11_combined_small.mp4	fixationPostVid	not applicable	not applicable	not applicable	not applicable	not applicable	not applicable	not applicable	not applicable	not applicable	not applicable	not applicable	not applicable	not applicable	not applicable
182.006	5.995	15	09_S11_combined_small.mp4	displayAnswer	31 or more	182.666635345995	not applicable	not applicable	not applicable	not applicable	not applicable	not applicable	not applicable	not applicable	not applicable	not applicable	not applicable	not applicable
188.001	0.05	15	09_S11_combined_small.mp4	fixationPostAnswer	not applicable	not applicable	not applicable	not applicable	not applicable	not applicable	not applicable	not applicable	not applicable	not applicable	not applicable	not applicable	not applicable	not applicable
188.051	5.954	15	09_S11_combined_small.mp4	displayCuriosity	3	190.99195299	not applicable	not applicable	not applicable	not applicable	not applicable	not applicable	not applicable	not applicable	not applicable	not applicable	not applicable	not applicable
194.004	4.001	15	09_S11_combined_small.mp4	fixationPostCuriosity	not applicable	not applicable	not applicable	not applicable	not applicable	not applicable	not applicable	not applicable	not applicable	not applicable	not applicable	not applicable	not applicable	not applicable
199.992	6.049	16	27_S31_combined_small.mp4	displayMockVid	not applicable	not applicable	not applicable	not applicable	not applicable	not applicable	not applicable	not applicable	not applicable	not applicable	not applicable	not applicable	not applicable	not applicable
206.041	21.017	16	27_S31_combined_small.mp4	displayVid	not applicable	not applicable	no recall	forgotten	forgotten	The magician transforms the envelope into a £10 note.	2	forgotten	forgotten	forgotten	forgotten	forgotten	forgotten	forgotten
227.999	4	16	27_S31_combined_small.mp4	fixationPostVid	not applicable	not applicable	not applicable	not applicable	not applicable	not applicable	not applicable	not applicable	not applicable	not applicable	not applicable	not applicable	not applicable	not applicable
231.999	6.005	16	27_S31_combined_small.mp4	displayAnswer	31 or more	233.216254858999	not applicable	not applicable	not applicable	not applicable	not applicable	not applicable	not applicable	not applicable	not applicable	not applicable	not applicable	not applicable
238.004	0.05	16	27_S31_combined_small.mp4	fixationPostAnswer	not applicable	not applicable	not applicable	not applicable	not applicable	not applicable	not applicable	not applicable	not applicable	not applicable	not applicable	not applicable	not applicable	not applicable
238.054	5.951	16	27_S31_combined_small.mp4	displayCuriosity	2	238.807589148993	not applicable	not applicable	not applicable	not applicable	not applicable	not applicable	not applicable	not applicable	not applicable	not applicable	not applicable	not applicable
244.005	4	16	27_S31_combined_small.mp4	fixationPostCuriosity	not applicable	not applicable	not applicable	not applicable	not applicable	not applicable	not applicable	not applicable	not applicable	not applicable	not applicable	not applicable	not applicable	not applicable
249.995	6.04	17	03_H16_combined_small.mp4	displayMockVid	not applicable	not applicable	not applicable	not applicable	not applicable	not applicable	not applicable	not applicable	not applicable	not applicable	not applicable	not applicable	not applicable	not applicable
256.035	33.623	17	03_H16_combined_small.mp4	displayVid	not applicable	not applicable	the can was changing shape as if it was not metal	forgotten	forgotten	The magician is able to remove the dents from the can without touching it.	6	forgotten	forgotten	forgotten	forgotten	forgotten	forgotten	forgotten
289.992	4.003	17	03_H16_combined_small.mp4	fixationPostVid	not applicable	not applicable	not applicable	not applicable	not applicable	not applicable	not applicable	not applicable	not applicable	not applicable	not applicable	not applicable	not applicable	not applicable
293.995	6.003	17	03_H16_combined_small.mp4	displayAnswer	31 or more	294.483687426	not applicable	not applicable	not applicable	not applicable	not applicable	not applicable	not applicable	not applicable	not applicable	not applicable	not applicable	not applicable
299.998	0.049	17	03_H16_combined_small.mp4	fixationPostAnswer	not applicable	not applicable	not applicable	not applicable	not applicable	not applicable	not applicable	not applicable	not applicable	not applicable	not applicable	not applicable	not applicable	not applicable
300.047	5.956	17	03_H16_combined_small.mp4	displayCuriosity	4	301.420593022995	not applicable	not applicable	not applicable	not applicable	not applicable	not applicable	not applicable	not applicable	not applicable	not applicable	not applicable	not applicable
306.003	4	17	03_H16_combined_small.mp4	fixationPostCuriosity	not applicable	not applicable	not applicable	not applicable	not applicable	not applicable	not applicable	not applicable	not applicable	not applicable	not applicable	not applicable	not applicable	not applicable
311.99	6.041	18	01_H35_combined_small.mp4	displayMockVid	not applicable	not applicable	not applicable	not applicable	not applicable	not applicable	not applicable	not applicable	not applicable	not applicable	not applicable	not applicable	not applicable	not applicable
318.031	37.66	18	01_H35_combined_small.mp4	displayVid	not applicable	not applicable	someone wrote on a card and after card was back in a pile the writing disappeared	forgotten	forgotten	The volunteer signs a card which the magician subsequently pulls from a Ziploc bag.	4	remembered	remembered	forgotten	forgotten	forgotten	remembered	remembered
356.007	3.998	18	01_H35_combined_small.mp4	fixationPostVid	not applicable	not applicable	not applicable	not applicable	not applicable	not applicable	not applicable	not applicable	not applicable	not applicable	not applicable	not applicable	not applicable	not applicable
360.005	5.999	18	01_H35_combined_small.mp4	displayAnswer	21 to 30	360.754907650997	not applicable	not applicable	not applicable	not applicable	not applicable	not applicable	not applicable	not applicable	not applicable	not applicable	not applicable	not applicable
366.004	0.049	18	01_H35_combined_small.mp4	fixationPostAnswer	not applicable	not applicable	not applicable	not applicable	not applicable	not applicable	not applicable	not applicable	not applicable	not applicable	not applicable	not applicable	not applicable	not applicable
366.052	5.948	18	01_H35_combined_small.mp4	displayCuriosity	3	367.668531872994	not applicable	not applicable	not applicable	not applicable	not applicable	not applicable	not applicable	not applicable	not applicable	not applicable	not applicable	not applicable
372	4.002	18	01_H35_combined_small.mp4	fixationPostCuriosity	not applicable	not applicable	not applicable	not applicable	not applicable	not applicable	not applicable	not applicable	not applicable	not applicable	not applicable	not applicable	not applicable	not applicable
378.004	6.035	19	30_H15_combined_small.mp4	displayMockVid	not applicable	not applicable	not applicable	not applicable	not applicable	not applicable	not applicable	not applicable	not applicable	not applicable	not applicable	not applicable	not applicable	not applicable
384.038	31.895	19	30_H15_combined_small.mp4	displayVid	not applicable	not applicable	no recall	forgotten	forgotten	The magician pierces the deck of cards with a toothpick, but afterwards there is no hole.	4	forgotten	forgotten	forgotten	forgotten	forgotten	forgotten	forgotten
416.001	8.002	19	30_H15_combined_small.mp4	fixationPostVid	not applicable	not applicable	not applicable	not applicable	not applicable	not applicable	not applicable	not applicable	not applicable	not applicable	not applicable	not applicable	not applicable	not applicable
424.003	6	19	30_H15_combined_small.mp4	displayAnswer	11 to 20	424.591407057997	not applicable	not applicable	not applicable	not applicable	not applicable	not applicable	not applicable	not applicable	not applicable	not applicable	not applicable	not applicable
430.003	0.05	19	30_H15_combined_small.mp4	fixationPostAnswer	not applicable	not applicable	not applicable	not applicable	not applicable	not applicable	not applicable	not applicable	not applicable	not applicable	not applicable	not applicable	not applicable	not applicable
430.053	5.949	19	30_H15_combined_small.mp4	displayCuriosity	2	432.321411389996	not applicable	not applicable	not applicable	not applicable	not applicable	not applicable	not applicable	not applicable	not applicable	not applicable	not applicable	not applicable
436.002	3.997	19	30_H15_combined_small.mp4	fixationPostCuriosity	not applicable	not applicable	not applicable	not applicable	not applicable	not applicable	not applicable	not applicable	not applicable	not applicable	not applicable	not applicable	not applicable	not applicable
442.001	6.003	20	24_Trick28_combined_small.mp4	displayMockVid	not applicable	not applicable	not applicable	not applicable	not applicable	not applicable	not applicable	not applicable	not applicable	not applicable	not applicable	not applicable	not applicable	not applicable
448.004	40.5	20	24_Trick28_combined_small.mp4	displayVid	not applicable	not applicable	no recall	forgotten	forgotten	The magician links and unlinks several silver rings while they keep their shape.	5	remembered	remembered	remembered	remembered	remembered	remembered	remembered
490.003	3.998	20	24_Trick28_combined_small.mp4	fixationPostVid	not applicable	not applicable	not applicable	not applicable	not applicable	not applicable	not applicable	not applicable	not applicable	not applicable	not applicable	not applicable	not applicable	not applicable
494.001	6	20	24_Trick28_combined_small.mp4	displayAnswer	31 or more	494.760484954	not applicable	not applicable	not applicable	not applicable	not applicable	not applicable	not applicable	not applicable	not applicable	not applicable	not applicable	not applicable
500.001	0.05	20	24_Trick28_combined_small.mp4	fixationPostAnswer	not applicable	not applicable	not applicable	not applicable	not applicable	not applicable	not applicable	not applicable	not applicable	not applicable	not applicable	not applicable	not applicable	not applicable
500.051	5.945	20	24_Trick28_combined_small.mp4	displayCuriosity	2	502.027721701998	not applicable	not applicable	not applicable	not applicable	not applicable	not applicable	not applicable	not applicable	not applicable	not applicable	not applicable	not applicable
505.996	4.003	20	24_Trick28_combined_small.mp4	fixationPostCuriosity	not applicable	not applicable	not applicable	not applicable	not applicable	not applicable	not applicable	not applicable	not applicable	not applicable	not applicable	not applicable	not applicable	not applicable
512	6.037	21	29_H36_combined_small.mp4	displayMockVid	not applicable	not applicable	not applicable	not applicable	not applicable	not applicable	not applicable	not applicable	not applicable	not applicable	not applicable	not applicable	not applicable	not applicable
518.038	36.408	21	29_H36_combined_small.mp4	displayVid	not applicable	not applicable	no recall	forgotten	forgotten	The magician places the nut in the middle of the bold and it magically screws itself.	4	forgotten	forgotten	forgotten	forgotten	forgotten	forgotten	forgotten
556.001	4	21	29_H36_combined_small.mp4	fixationPostVid	not applicable	not applicable	not applicable	not applicable	not applicable	not applicable	not applicable	not applicable	not applicable	not applicable	not applicable	not applicable	not applicable	not applicable
560.001	6	21	29_H36_combined_small.mp4	displayAnswer	31 or more	560.577500784995	not applicable	not applicable	not applicable	not applicable	not applicable	not applicable	not applicable	not applicable	not applicable	not applicable	not applicable	not applicable
566	0.05	21	29_H36_combined_small.mp4	fixationPostAnswer	not applicable	not applicable	not applicable	not applicable	not applicable	not applicable	not applicable	not applicable	not applicable	not applicable	not applicable	not applicable	not applicable	not applicable
566.05	5.95	21	29_H36_combined_small.mp4	displayCuriosity	3	568.324493639993	not applicable	not applicable	not applicable	not applicable	not applicable	not applicable	not applicable	not applicable	not applicable	not applicable	not applicable	not applicable
572.001	7.999	21	29_H36_combined_small.mp4	fixationPostCuriosity	not applicable	not applicable	not applicable	not applicable	not applicable	not applicable	not applicable	not applicable	not applicable	not applicable	not applicable	not applicable	not applicable	not applicable
582	6.008	22	04_S9_combined_small.mp4	displayMockVid	not applicable	not applicable	not applicable	not applicable	not applicable	not applicable	not applicable	not applicable	not applicable	not applicable	not applicable	not applicable	not applicable	not applicable
588.008	32.49	22	04_S9_combined_small.mp4	displayVid	not applicable	not applicable	someone else picked a card showed and put it back. and the magician was able to get the same card back	forgotten	forgotten	The magician covers the cards with a silk handkerchief. After the silk is removed, the cards are blank.	3	forgotten	forgotten	forgotten	forgotten	forgotten	forgotten	forgotten
622.002	3.999	22	04_S9_combined_small.mp4	fixationPostVid	not applicable	not applicable	not applicable	not applicable	not applicable	not applicable	not applicable	not applicable	not applicable	not applicable	not applicable	not applicable	not applicable	not applicable
626	6	22	04_S9_combined_small.mp4	displayAnswer	11 to 20	626.556918604998	not applicable	not applicable	not applicable	not applicable	not applicable	not applicable	not applicable	not applicable	not applicable	not applicable	not applicable	not applicable
632	0.049	22	04_S9_combined_small.mp4	fixationPostAnswer	not applicable	not applicable	not applicable	not applicable	not applicable	not applicable	not applicable	not applicable	not applicable	not applicable	not applicable	not applicable	not applicable	not applicable
632.049	5.95	22	04_S9_combined_small.mp4	displayCuriosity	2	633.703878841996	not applicable	not applicable	not applicable	not applicable	not applicable	not applicable	not applicable	not applicable	not applicable	not applicable	not applicable	not applicable
638	3.995	22	04_S9_combined_small.mp4	fixationPostCuriosity	not applicable	not applicable	not applicable	not applicable	not applicable	not applicable	not applicable	not applicable	not applicable	not applicable	not applicable	not applicable	not applicable	not applicable
643.996	6.006	23	34_Trick38_combined_small.mp4	displayMockVid	not applicable	not applicable	not applicable	not applicable	not applicable	not applicable	not applicable	not applicable	not applicable	not applicable	not applicable	not applicable	not applicable	not applicable
650.002	27.451	23	34_Trick38_combined_small.mp4	displayVid	not applicable	not applicable	no recall	forgotten	forgotten	The magician closes one fist around a silk handkerchief and makes it disappear. Then, he makes it appear in his other hand.	6	remembered	remembered	remembered	remembered	remembered	remembered	remembered
677.988	4.004	23	34_Trick38_combined_small.mp4	fixationPostVid	not applicable	not applicable	not applicable	not applicable	not applicable	not applicable	not applicable	not applicable	not applicable	not applicable	not applicable	not applicable	not applicable	not applicable
681.992	6.003	23	34_Trick38_combined_small.mp4	displayAnswer	31 or more	682.646381305996	not applicable	not applicable	not applicable	not applicable	not applicable	not applicable	not applicable	not applicable	not applicable	not applicable	not applicable	not applicable
687.995	0.049	23	34_Trick38_combined_small.mp4	fixationPostAnswer	not applicable	not applicable	not applicable	not applicable	not applicable	not applicable	not applicable	not applicable	not applicable	not applicable	not applicable	not applicable	not applicable	not applicable
688.044	5.954	23	34_Trick38_combined_small.mp4	displayCuriosity	4	690.086538718999	not applicable	not applicable	not applicable	not applicable	not applicable	not applicable	not applicable	not applicable	not applicable	not applicable	not applicable	not applicable
693.998	4	23	34_Trick38_combined_small.mp4	fixationPostCuriosity	not applicable	not applicable	not applicable	not applicable	not applicable	not applicable	not applicable	not applicable	not applicable	not applicable	not applicable	not applicable	not applicable	not applicable
699.986	6.04	24	13_Trick6_short_combined_small.mp4	displayMockVid	not applicable	not applicable	not applicable	not applicable	not applicable	not applicable	not applicable	not applicable	not applicable	not applicable	not applicable	not applicable	not applicable	not applicable
706.026	37.66	24	13_Trick6_short_combined_small.mp4	displayVid	not applicable	not applicable	the person was putting objects in and out and they were appearing and disappearing	remembered	remembered	The magician puts the ball under the cup and makes it disappear.	4	forgotten	forgotten	forgotten	remembered	remembered	remembered	remembered
743.985	10.007	24	13_Trick6_short_combined_small.mp4	fixationPostVid	not applicable	not applicable	not applicable	not applicable	not applicable	not applicable	not applicable	not applicable	not applicable	not applicable	not applicable	not applicable	not applicable	not applicable
753.992	6.005	24	13_Trick6_short_combined_small.mp4	displayAnswer	21 to 30	754.503031492997	not applicable	not applicable	not applicable	not applicable	not applicable	not applicable	not applicable	not applicable	not applicable	not applicable	not applicable	not applicable
759.997	0.049	24	13_Trick6_short_combined_small.mp4	fixationPostAnswer	not applicable	not applicable	not applicable	not applicable	not applicable	not applicable	not applicable	not applicable	not applicable	not applicable	not applicable	not applicable	not applicable	not applicable
760.045	5.953	24	13_Trick6_short_combined_small.mp4	displayCuriosity	5	762.391684306	not applicable	not applicable	not applicable	not applicable	not applicable	not applicable	not applicable	not applicable	not applicable	not applicable	not applicable	not applicable
765.998	3.999	24	13_Trick6_short_combined_small.mp4	fixationPostCuriosity	not applicable	not applicable	not applicable	not applicable	not applicable	not applicable	not applicable	not applicable	not applicable	not applicable	not applicable	not applicable	not applicable	not applicable
