onset	duration	trial	stim_file	event	response	response_timestamp	response_recall	trial_type_cuedRecallStrict	trial_type_cuedRecallLenient	response_recognition	response_confidence	trial_type_allConf	trial_type_highConf	trial_type_aboveAvgConf	trial_type_rememberedStrictAboveAvg	trial_type_rememberedLenientAboveAvg	trial_type_rememberedStrictHigh	trial_type_rememberedLenientHigh
2.001	6.024	1	28_K24_combined_small.mp4	displayMockVid	not applicable	not applicable	not applicable	not applicable	not applicable	not applicable	not applicable	not applicable	not applicable	not applicable	not applicable	not applicable	not applicable	not applicable
8.025	24.767	1	28_K24_combined_small.mp4	displayVid	not applicable	not applicable	note turning onto higher value or coin going through note	forgotten	remembered	A £10 note is transformed into a £20  note.	5	remembered	remembered	remembered	remembered	remembered	remembered	remembered
34.007	4	1	28_K24_combined_small.mp4	fixationPostVid	not applicable	not applicable	not applicable	not applicable	not applicable	not applicable	not applicable	not applicable	not applicable	not applicable	not applicable	not applicable	not applicable	not applicable
38.006	6.025	1	28_K24_combined_small.mp4	displayAnswer	NaN	43.982210123002	not applicable	not applicable	not applicable	not applicable	not applicable	not applicable	not applicable	not applicable	not applicable	not applicable	not applicable	not applicable
44.031	0.075	1	28_K24_combined_small.mp4	fixationPostAnswer	not applicable	not applicable	not applicable	not applicable	not applicable	not applicable	not applicable	not applicable	not applicable	not applicable	not applicable	not applicable	not applicable	not applicable
44.106	5.947	1	28_K24_combined_small.mp4	displayCuriosity	6	47.6951352080032	not applicable	not applicable	not applicable	not applicable	not applicable	not applicable	not applicable	not applicable	not applicable	not applicable	not applicable	not applicable
50.053	4.003	1	28_K24_combined_small.mp4	fixationPostCuriosity	not applicable	not applicable	not applicable	not applicable	not applicable	not applicable	not applicable	not applicable	not applicable	not applicable	not applicable	not applicable	not applicable	not applicable
56.005	6.036	2	13_Trick6_short_combined_small.mp4	displayMockVid	not applicable	not applicable	not applicable	not applicable	not applicable	not applicable	not applicable	not applicable	not applicable	not applicable	not applicable	not applicable	not applicable	not applicable
62.041	37.65	2	13_Trick6_short_combined_small.mp4	displayVid	not applicable	not applicable	no recall	forgotten	forgotten	The magician puts the ball under the cup and makes it disappear.	1	forgotten	forgotten	forgotten	forgotten	forgotten	forgotten	forgotten
100.006	4	2	13_Trick6_short_combined_small.mp4	fixationPostVid	not applicable	not applicable	not applicable	not applicable	not applicable	not applicable	not applicable	not applicable	not applicable	not applicable	not applicable	not applicable	not applicable	not applicable
104.006	5.999	2	13_Trick6_short_combined_small.mp4	displayAnswer	21 to 30	105.850628627002	not applicable	not applicable	not applicable	not applicable	not applicable	not applicable	not applicable	not applicable	not applicable	not applicable	not applicable	not applicable
110.005	0.05	2	13_Trick6_short_combined_small.mp4	fixationPostAnswer	not applicable	not applicable	not applicable	not applicable	not applicable	not applicable	not applicable	not applicable	not applicable	not applicable	not applicable	not applicable	not applicable	not applicable
110.055	5.962	2	13_Trick6_short_combined_small.mp4	displayCuriosity	5	115.979768211	not applicable	not applicable	not applicable	not applicable	not applicable	not applicable	not applicable	not applicable	not applicable	not applicable	not applicable	not applicable
116.017	8.005	2	13_Trick6_short_combined_small.mp4	fixationPostCuriosity	not applicable	not applicable	not applicable	not applicable	not applicable	not applicable	not applicable	not applicable	not applicable	not applicable	not applicable	not applicable	not applicable	not applicable
126.005	6.035	3	10_S27_combined_small.mp4	displayMockVid	not applicable	not applicable	not applicable	not applicable	not applicable	not applicable	not applicable	not applicable	not applicable	not applicable	not applicable	not applicable	not applicable	not applicable
132.04	31.578	3	10_S27_combined_small.mp4	displayVid	not applicable	not applicable	no recall	forgotten	forgotten	The magician pours water into a cup from the bottle, but when he tips it upside down, no water spills out.	2	forgotten	forgotten	forgotten	forgotten	forgotten	forgotten	forgotten
164.002	4.003	3	10_S27_combined_small.mp4	fixationPostVid	not applicable	not applicable	not applicable	not applicable	not applicable	not applicable	not applicable	not applicable	not applicable	not applicable	not applicable	not applicable	not applicable	not applicable
168.005	6	3	10_S27_combined_small.mp4	displayAnswer	0 to 10	168.732361615002	not applicable	not applicable	not applicable	not applicable	not applicable	not applicable	not applicable	not applicable	not applicable	not applicable	not applicable	not applicable
174.005	0.049	3	10_S27_combined_small.mp4	fixationPostAnswer	not applicable	not applicable	not applicable	not applicable	not applicable	not applicable	not applicable	not applicable	not applicable	not applicable	not applicable	not applicable	not applicable	not applicable
174.054	5.95	3	10_S27_combined_small.mp4	displayCuriosity	6	178.046583049003	not applicable	not applicable	not applicable	not applicable	not applicable	not applicable	not applicable	not applicable	not applicable	not applicable	not applicable	not applicable
180.004	10	3	10_S27_combined_small.mp4	fixationPostCuriosity	not applicable	not applicable	not applicable	not applicable	not applicable	not applicable	not applicable	not applicable	not applicable	not applicable	not applicable	not applicable	not applicable	not applicable
192.004	6.036	4	22_K18_combined_small.mp4	displayMockVid	not applicable	not applicable	not applicable	not applicable	not applicable	not applicable	not applicable	not applicable	not applicable	not applicable	not applicable	not applicable	not applicable	not applicable
198.039	22.216	4	22_K18_combined_small.mp4	displayVid	not applicable	not applicable	no recall	forgotten	forgotten	A pack of cards appears from a single piece of paper.	3	remembered	forgotten	forgotten	forgotten	forgotten	forgotten	forgotten
222.004	4	4	22_K18_combined_small.mp4	fixationPostVid	not applicable	not applicable	not applicable	not applicable	not applicable	not applicable	not applicable	not applicable	not applicable	not applicable	not applicable	not applicable	not applicable	not applicable
226.004	5.996	4	22_K18_combined_small.mp4	displayAnswer	0 to 10	226.826520735001	not applicable	not applicable	not applicable	not applicable	not applicable	not applicable	not applicable	not applicable	not applicable	not applicable	not applicable	not applicable
232	0.05	4	22_K18_combined_small.mp4	fixationPostAnswer	not applicable	not applicable	not applicable	not applicable	not applicable	not applicable	not applicable	not applicable	not applicable	not applicable	not applicable	not applicable	not applicable	not applicable
232.051	5.953	4	22_K18_combined_small.mp4	displayCuriosity	5	236.911384539002	not applicable	not applicable	not applicable	not applicable	not applicable	not applicable	not applicable	not applicable	not applicable	not applicable	not applicable	not applicable
238.003	4	4	22_K18_combined_small.mp4	fixationPostCuriosity	not applicable	not applicable	not applicable	not applicable	not applicable	not applicable	not applicable	not applicable	not applicable	not applicable	not applicable	not applicable	not applicable	not applicable
244.003	6.036	5	06_H7_combined_small.mp4	displayMockVid	not applicable	not applicable	not applicable	not applicable	not applicable	not applicable	not applicable	not applicable	not applicable	not applicable	not applicable	not applicable	not applicable	not applicable
250.039	33.849	5	06_H7_combined_small.mp4	displayVid	not applicable	not applicable	no recall	forgotten	forgotten	The magician wraps the salt shaker in the cloth and makes it disappear.	2	forgotten	forgotten	forgotten	forgotten	forgotten	forgotten	forgotten
284.004	4	5	06_H7_combined_small.mp4	fixationPostVid	not applicable	not applicable	not applicable	not applicable	not applicable	not applicable	not applicable	not applicable	not applicable	not applicable	not applicable	not applicable	not applicable	not applicable
288.004	6	5	06_H7_combined_small.mp4	displayAnswer	0 to 10	289.140437063001	not applicable	not applicable	not applicable	not applicable	not applicable	not applicable	not applicable	not applicable	not applicable	not applicable	not applicable	not applicable
294.003	0.048	5	06_H7_combined_small.mp4	fixationPostAnswer	not applicable	not applicable	not applicable	not applicable	not applicable	not applicable	not applicable	not applicable	not applicable	not applicable	not applicable	not applicable	not applicable	not applicable
294.052	5.948	5	06_H7_combined_small.mp4	displayCuriosity	5	296.916494884001	not applicable	not applicable	not applicable	not applicable	not applicable	not applicable	not applicable	not applicable	not applicable	not applicable	not applicable	not applicable
300	4.003	5	06_H7_combined_small.mp4	fixationPostCuriosity	not applicable	not applicable	not applicable	not applicable	not applicable	not applicable	not applicable	not applicable	not applicable	not applicable	not applicable	not applicable	not applicable	not applicable
306.003	6.034	6	16_H19_combined_small.mp4	displayMockVid	not applicable	not applicable	not applicable	not applicable	not applicable	not applicable	not applicable	not applicable	not applicable	not applicable	not applicable	not applicable	not applicable	not applicable
312.037	22.617	6	16_H19_combined_small.mp4	displayVid	not applicable	not applicable	no recall	forgotten	forgotten	The magician places paper in volunteer's hand and sets it alight, revealing a red sponge ball.	2	remembered	forgotten	forgotten	forgotten	forgotten	forgotten	forgotten
336.003	4	6	16_H19_combined_small.mp4	fixationPostVid	not applicable	not applicable	not applicable	not applicable	not applicable	not applicable	not applicable	not applicable	not applicable	not applicable	not applicable	not applicable	not applicable	not applicable
340.003	5.997	6	16_H19_combined_small.mp4	displayAnswer	21 to 30	340.562403340002	not applicable	not applicable	not applicable	not applicable	not applicable	not applicable	not applicable	not applicable	not applicable	not applicable	not applicable	not applicable
346	0.05	6	16_H19_combined_small.mp4	fixationPostAnswer	not applicable	not applicable	not applicable	not applicable	not applicable	not applicable	not applicable	not applicable	not applicable	not applicable	not applicable	not applicable	not applicable	not applicable
346.049	5.952	6	16_H19_combined_small.mp4	displayCuriosity	7	349.44896052	not applicable	not applicable	not applicable	not applicable	not applicable	not applicable	not applicable	not applicable	not applicable	not applicable	not applicable	not applicable
352.002	4	6	16_H19_combined_small.mp4	fixationPostCuriosity	not applicable	not applicable	not applicable	not applicable	not applicable	not applicable	not applicable	not applicable	not applicable	not applicable	not applicable	not applicable	not applicable	not applicable
358.002	6.028	7	33_S21_combined_small.mp4	displayMockVid	not applicable	not applicable	not applicable	not applicable	not applicable	not applicable	not applicable	not applicable	not applicable	not applicable	not applicable	not applicable	not applicable	not applicable
364.03	21.822	7	33_S21_combined_small.mp4	displayVid	not applicable	not applicable	no recall	forgotten	forgotten	The magician detaches the head of a spoon by moving the handle up and down.	1	remembered	forgotten	forgotten	forgotten	forgotten	forgotten	forgotten
385.996	4.005	7	33_S21_combined_small.mp4	fixationPostVid	not applicable	not applicable	not applicable	not applicable	not applicable	not applicable	not applicable	not applicable	not applicable	not applicable	not applicable	not applicable	not applicable	not applicable
390.001	6.001	7	33_S21_combined_small.mp4	displayAnswer	11 to 20	390.527495770002	not applicable	not applicable	not applicable	not applicable	not applicable	not applicable	not applicable	not applicable	not applicable	not applicable	not applicable	not applicable
396.002	0.049	7	33_S21_combined_small.mp4	fixationPostAnswer	not applicable	not applicable	not applicable	not applicable	not applicable	not applicable	not applicable	not applicable	not applicable	not applicable	not applicable	not applicable	not applicable	not applicable
396.052	5.951	7	33_S21_combined_small.mp4	displayCuriosity	4	397.636046191001	not applicable	not applicable	not applicable	not applicable	not applicable	not applicable	not applicable	not applicable	not applicable	not applicable	not applicable	not applicable
402.002	3.999	7	33_S21_combined_small.mp4	fixationPostCuriosity	not applicable	not applicable	not applicable	not applicable	not applicable	not applicable	not applicable	not applicable	not applicable	not applicable	not applicable	not applicable	not applicable	not applicable
407.994	6.04	8	04_S9_combined_small.mp4	displayMockVid	not applicable	not applicable	not applicable	not applicable	not applicable	not applicable	not applicable	not applicable	not applicable	not applicable	not applicable	not applicable	not applicable	not applicable
414.034	32.45	8	04_S9_combined_small.mp4	displayVid	not applicable	not applicable	no recall	forgotten	forgotten	The cards magically change their appearance.	3	remembered	forgotten	forgotten	forgotten	forgotten	forgotten	forgotten
448.002	5.999	8	04_S9_combined_small.mp4	fixationPostVid	not applicable	not applicable	not applicable	not applicable	not applicable	not applicable	not applicable	not applicable	not applicable	not applicable	not applicable	not applicable	not applicable	not applicable
454	5.999	8	04_S9_combined_small.mp4	displayAnswer	0 to 10	454.603187474	not applicable	not applicable	not applicable	not applicable	not applicable	not applicable	not applicable	not applicable	not applicable	not applicable	not applicable	not applicable
459.999	0.049	8	04_S9_combined_small.mp4	fixationPostAnswer	not applicable	not applicable	not applicable	not applicable	not applicable	not applicable	not applicable	not applicable	not applicable	not applicable	not applicable	not applicable	not applicable	not applicable
460.048	5.952	8	04_S9_combined_small.mp4	displayCuriosity	6	462.140483118001	not applicable	not applicable	not applicable	not applicable	not applicable	not applicable	not applicable	not applicable	not applicable	not applicable	not applicable	not applicable
466	4	8	04_S9_combined_small.mp4	fixationPostCuriosity	not applicable	not applicable	not applicable	not applicable	not applicable	not applicable	not applicable	not applicable	not applicable	not applicable	not applicable	not applicable	not applicable	not applicable
472.001	6.029	9	23_K10_combined_small.mp4	displayMockVid	not applicable	not applicable	not applicable	not applicable	not applicable	not applicable	not applicable	not applicable	not applicable	not applicable	not applicable	not applicable	not applicable	not applicable
478.029	23.417	9	23_K10_combined_small.mp4	displayVid	not applicable	not applicable	no recall	forgotten	forgotten	The safety pins magically interlock without breaking the seal.	5	remembered	remembered	remembered	remembered	remembered	remembered	remembered
501.995	4.003	9	23_K10_combined_small.mp4	fixationPostVid	not applicable	not applicable	not applicable	not applicable	not applicable	not applicable	not applicable	not applicable	not applicable	not applicable	not applicable	not applicable	not applicable	not applicable
505.998	6.003	9	23_K10_combined_small.mp4	displayAnswer	11 to 20	507.470038445001	not applicable	not applicable	not applicable	not applicable	not applicable	not applicable	not applicable	not applicable	not applicable	not applicable	not applicable	not applicable
512.001	0.049	9	23_K10_combined_small.mp4	fixationPostAnswer	not applicable	not applicable	not applicable	not applicable	not applicable	not applicable	not applicable	not applicable	not applicable	not applicable	not applicable	not applicable	not applicable	not applicable
512.049	5.951	9	23_K10_combined_small.mp4	displayCuriosity	6	513.792023931001	not applicable	not applicable	not applicable	not applicable	not applicable	not applicable	not applicable	not applicable	not applicable	not applicable	not applicable	not applicable
518	4	9	23_K10_combined_small.mp4	fixationPostCuriosity	not applicable	not applicable	not applicable	not applicable	not applicable	not applicable	not applicable	not applicable	not applicable	not applicable	not applicable	not applicable	not applicable	not applicable
523.994	6.04	10	20_Trick20_short_combined_small.mp4	displayMockVid	not applicable	not applicable	not applicable	not applicable	not applicable	not applicable	not applicable	not applicable	not applicable	not applicable	not applicable	not applicable	not applicable	not applicable
530.034	26.132	10	20_Trick20_short_combined_small.mp4	displayVid	not applicable	not applicable	nut escaping from rope	remembered	remembered	The magician shows the volunteer metal nut and rope. Although he secures the nut with the rope, it repeatdely escapes.	3	remembered	forgotten	forgotten	remembered	remembered	remembered	remembered
558.001	5.999	10	20_Trick20_short_combined_small.mp4	fixationPostVid	not applicable	not applicable	not applicable	not applicable	not applicable	not applicable	not applicable	not applicable	not applicable	not applicable	not applicable	not applicable	not applicable	not applicable
564	5.995	10	20_Trick20_short_combined_small.mp4	displayAnswer	11 to 20	564.528014153002	not applicable	not applicable	not applicable	not applicable	not applicable	not applicable	not applicable	not applicable	not applicable	not applicable	not applicable	not applicable
569.994	0.049	10	20_Trick20_short_combined_small.mp4	fixationPostAnswer	not applicable	not applicable	not applicable	not applicable	not applicable	not applicable	not applicable	not applicable	not applicable	not applicable	not applicable	not applicable	not applicable	not applicable
570.044	5.954	10	20_Trick20_short_combined_small.mp4	displayCuriosity	5	573.636285572	not applicable	not applicable	not applicable	not applicable	not applicable	not applicable	not applicable	not applicable	not applicable	not applicable	not applicable	not applicable
575.998	6	10	20_Trick20_short_combined_small.mp4	fixationPostCuriosity	not applicable	not applicable	not applicable	not applicable	not applicable	not applicable	not applicable	not applicable	not applicable	not applicable	not applicable	not applicable	not applicable	not applicable
583.999	6.029	11	27_S31_combined_small.mp4	displayMockVid	not applicable	not applicable	not applicable	not applicable	not applicable	not applicable	not applicable	not applicable	not applicable	not applicable	not applicable	not applicable	not applicable	not applicable
590.028	21.013	11	27_S31_combined_small.mp4	displayVid	not applicable	not applicable	no recall	forgotten	forgotten	The magician transforms the envelope into a £10 note.	2	forgotten	forgotten	forgotten	forgotten	forgotten	forgotten	forgotten
611.993	4.004	11	27_S31_combined_small.mp4	fixationPostVid	not applicable	not applicable	not applicable	not applicable	not applicable	not applicable	not applicable	not applicable	not applicable	not applicable	not applicable	not applicable	not applicable	not applicable
615.996	6.002	11	27_S31_combined_small.mp4	displayAnswer	11 to 20	617.003824768002	not applicable	not applicable	not applicable	not applicable	not applicable	not applicable	not applicable	not applicable	not applicable	not applicable	not applicable	not applicable
621.999	0.05	11	27_S31_combined_small.mp4	fixationPostAnswer	not applicable	not applicable	not applicable	not applicable	not applicable	not applicable	not applicable	not applicable	not applicable	not applicable	not applicable	not applicable	not applicable	not applicable
622.048	5.95	11	27_S31_combined_small.mp4	displayCuriosity	6	623.961595429002	not applicable	not applicable	not applicable	not applicable	not applicable	not applicable	not applicable	not applicable	not applicable	not applicable	not applicable	not applicable
627.998	9.998	11	27_S31_combined_small.mp4	fixationPostCuriosity	not applicable	not applicable	not applicable	not applicable	not applicable	not applicable	not applicable	not applicable	not applicable	not applicable	not applicable	not applicable	not applicable	not applicable
639.994	6.038	12	03_H16_combined_small.mp4	displayMockVid	not applicable	not applicable	not applicable	not applicable	not applicable	not applicable	not applicable	not applicable	not applicable	not applicable	not applicable	not applicable	not applicable	not applicable
646.033	33.606	12	03_H16_combined_small.mp4	displayVid	not applicable	not applicable	can is fixed? and even if it had been shown empty it pours liquid	remembered	remembered	Although the can seems empty, the magician is able to pour sparkling water.	5	forgotten	forgotten	forgotten	remembered	remembered	remembered	remembered
679.99	4.003	12	03_H16_combined_small.mp4	fixationPostVid	not applicable	not applicable	not applicable	not applicable	not applicable	not applicable	not applicable	not applicable	not applicable	not applicable	not applicable	not applicable	not applicable	not applicable
683.993	6.005	12	03_H16_combined_small.mp4	displayAnswer	0 to 10	685.016211099002	not applicable	not applicable	not applicable	not applicable	not applicable	not applicable	not applicable	not applicable	not applicable	not applicable	not applicable	not applicable
689.998	0.05	12	03_H16_combined_small.mp4	fixationPostAnswer	not applicable	not applicable	not applicable	not applicable	not applicable	not applicable	not applicable	not applicable	not applicable	not applicable	not applicable	not applicable	not applicable	not applicable
690.048	5.95	12	03_H16_combined_small.mp4	displayCuriosity	6	692.854478775	not applicable	not applicable	not applicable	not applicable	not applicable	not applicable	not applicable	not applicable	not applicable	not applicable	not applicable	not applicable
695.998	3.999	12	03_H16_combined_small.mp4	fixationPostCuriosity	not applicable	not applicable	not applicable	not applicable	not applicable	not applicable	not applicable	not applicable	not applicable	not applicable	not applicable	not applicable	not applicable	not applicable
