onset	duration	trial	stim_file	event	response	response_timestamp	response_recall	trial_type_cuedRecallStrict	trial_type_cuedRecallLenient	response_recognition	response_confidence	trial_type_allConf	trial_type_highConf	trial_type_aboveAvgConf	trial_type_rememberedStrictAboveAvg	trial_type_rememberedLenientAboveAvg	trial_type_rememberedStrictHigh	trial_type_rememberedLenientHigh
2	6.003	1	15_S18_combined_small.mp4	displayMockVid	not applicable	not applicable	not applicable	not applicable	not applicable	not applicable	not applicable	not applicable	not applicable	not applicable	not applicable	not applicable	not applicable	not applicable
8.003	32.524	1	15_S18_combined_small.mp4	displayVid	not applicable	not applicable	No recall. 	forgotten	forgotten	The magician is able to hide his whole arm inside the blue paper bag.	2	forgotten	forgotten	forgotten	forgotten	forgotten	forgotten	forgotten
41.995	4.001	1	15_S18_combined_small.mp4	fixationPostVid	not applicable	not applicable	not applicable	not applicable	not applicable	not applicable	not applicable	not applicable	not applicable	not applicable	not applicable	not applicable	not applicable	not applicable
45.996	6.002	1	15_S18_combined_small.mp4	displayAnswer	11 to 20	48.3165170329994	not applicable	not applicable	not applicable	not applicable	not applicable	not applicable	not applicable	not applicable	not applicable	not applicable	not applicable	not applicable
51.998	0.069	1	15_S18_combined_small.mp4	fixationPostAnswer	not applicable	not applicable	not applicable	not applicable	not applicable	not applicable	not applicable	not applicable	not applicable	not applicable	not applicable	not applicable	not applicable	not applicable
52.067	5.988	1	15_S18_combined_small.mp4	displayCuriosity	7	57.9935769849981	not applicable	not applicable	not applicable	not applicable	not applicable	not applicable	not applicable	not applicable	not applicable	not applicable	not applicable	not applicable
58.056	4.003	1	15_S18_combined_small.mp4	fixationPostCuriosity	not applicable	not applicable	not applicable	not applicable	not applicable	not applicable	not applicable	not applicable	not applicable	not applicable	not applicable	not applicable	not applicable	not applicable
63.993	6.005	2	35_Trick32_long_combined_small.mp4	displayMockVid	not applicable	not applicable	not applicable	not applicable	not applicable	not applicable	not applicable	not applicable	not applicable	not applicable	not applicable	not applicable	not applicable	not applicable
69.998	46.982	2	35_Trick32_long_combined_small.mp4	displayVid	not applicable	not applicable	No recall.	forgotten	forgotten	The magician shows a silver and a copper coin. Every time he puts a coin in his pocket, the coin appears again in his hand.	2	forgotten	forgotten	forgotten	forgotten	forgotten	forgotten	forgotten
117.997	4	2	35_Trick32_long_combined_small.mp4	fixationPostVid	not applicable	not applicable	not applicable	not applicable	not applicable	not applicable	not applicable	not applicable	not applicable	not applicable	not applicable	not applicable	not applicable	not applicable
121.997	5.999	2	35_Trick32_long_combined_small.mp4	displayAnswer	0 to 10	122.895124713999	not applicable	not applicable	not applicable	not applicable	not applicable	not applicable	not applicable	not applicable	not applicable	not applicable	not applicable	not applicable
127.996	0.05	2	35_Trick32_long_combined_small.mp4	fixationPostAnswer	not applicable	not applicable	not applicable	not applicable	not applicable	not applicable	not applicable	not applicable	not applicable	not applicable	not applicable	not applicable	not applicable	not applicable
128.046	5.948	2	35_Trick32_long_combined_small.mp4	displayCuriosity	7	131.285819533998	not applicable	not applicable	not applicable	not applicable	not applicable	not applicable	not applicable	not applicable	not applicable	not applicable	not applicable	not applicable
133.995	8	2	35_Trick32_long_combined_small.mp4	fixationPostCuriosity	not applicable	not applicable	not applicable	not applicable	not applicable	not applicable	not applicable	not applicable	not applicable	not applicable	not applicable	not applicable	not applicable	not applicable
143.996	6.044	3	12_H37_combined_small.mp4	displayMockVid	not applicable	not applicable	not applicable	not applicable	not applicable	not applicable	not applicable	not applicable	not applicable	not applicable	not applicable	not applicable	not applicable	not applicable
150.041	28.767	3	12_H37_combined_small.mp4	displayVid	not applicable	not applicable	No recall.	forgotten	forgotten	The magician detaches his thumb, but when he turns his hands, the thumb is reattached.	4	forgotten	forgotten	forgotten	forgotten	forgotten	forgotten	forgotten
179.993	4.003	3	12_H37_combined_small.mp4	fixationPostVid	not applicable	not applicable	not applicable	not applicable	not applicable	not applicable	not applicable	not applicable	not applicable	not applicable	not applicable	not applicable	not applicable	not applicable
183.996	6	3	12_H37_combined_small.mp4	displayAnswer	11 to 20	185.788309297997	not applicable	not applicable	not applicable	not applicable	not applicable	not applicable	not applicable	not applicable	not applicable	not applicable	not applicable	not applicable
189.996	0.049	3	12_H37_combined_small.mp4	fixationPostAnswer	not applicable	not applicable	not applicable	not applicable	not applicable	not applicable	not applicable	not applicable	not applicable	not applicable	not applicable	not applicable	not applicable	not applicable
190.045	5.95	3	12_H37_combined_small.mp4	displayCuriosity	7	192.735934501998	not applicable	not applicable	not applicable	not applicable	not applicable	not applicable	not applicable	not applicable	not applicable	not applicable	not applicable	not applicable
195.994	10.001	3	12_H37_combined_small.mp4	fixationPostCuriosity	not applicable	not applicable	not applicable	not applicable	not applicable	not applicable	not applicable	not applicable	not applicable	not applicable	not applicable	not applicable	not applicable	not applicable
207.995	6.002	4	33_S21_combined_small.mp4	displayMockVid	not applicable	not applicable	not applicable	not applicable	not applicable	not applicable	not applicable	not applicable	not applicable	not applicable	not applicable	not applicable	not applicable	not applicable
213.997	21.853	4	33_S21_combined_small.mp4	displayVid	not applicable	not applicable	The magician uses magic to bend the spoon. 	remembered	remembered	The magician covers the spoon with a handkerchief. When he removes it, the spoon is bent.	6	forgotten	forgotten	forgotten	remembered	remembered	remembered	remembered
235.996	3.999	4	33_S21_combined_small.mp4	fixationPostVid	not applicable	not applicable	not applicable	not applicable	not applicable	not applicable	not applicable	not applicable	not applicable	not applicable	not applicable	not applicable	not applicable	not applicable
239.995	5.996	4	33_S21_combined_small.mp4	displayAnswer	21 to 30	240.802367951001	not applicable	not applicable	not applicable	not applicable	not applicable	not applicable	not applicable	not applicable	not applicable	not applicable	not applicable	not applicable
245.991	0.048	4	33_S21_combined_small.mp4	fixationPostAnswer	not applicable	not applicable	not applicable	not applicable	not applicable	not applicable	not applicable	not applicable	not applicable	not applicable	not applicable	not applicable	not applicable	not applicable
246.04	5.957	4	33_S21_combined_small.mp4	displayCuriosity	7	249.676039065998	not applicable	not applicable	not applicable	not applicable	not applicable	not applicable	not applicable	not applicable	not applicable	not applicable	not applicable	not applicable
251.997	3.998	4	33_S21_combined_small.mp4	fixationPostCuriosity	not applicable	not applicable	not applicable	not applicable	not applicable	not applicable	not applicable	not applicable	not applicable	not applicable	not applicable	not applicable	not applicable	not applicable
257.995	6.003	5	14_K19_long_combined_small.mp4	displayMockVid	not applicable	not applicable	not applicable	not applicable	not applicable	not applicable	not applicable	not applicable	not applicable	not applicable	not applicable	not applicable	not applicable	not applicable
263.998	31.862	5	14_K19_long_combined_small.mp4	displayVid	not applicable	not applicable	Both red sponges dissapear. 	forgotten	remembered	The red balls are placed under the mug and merge to become a form a larger ball.	1	forgotten	forgotten	forgotten	forgotten	remembered	forgotten	remembered
295.994	4.003	5	14_K19_long_combined_small.mp4	fixationPostVid	not applicable	not applicable	not applicable	not applicable	not applicable	not applicable	not applicable	not applicable	not applicable	not applicable	not applicable	not applicable	not applicable	not applicable
299.996	5.998	5	14_K19_long_combined_small.mp4	displayAnswer	11 to 20	301.517497880999	not applicable	not applicable	not applicable	not applicable	not applicable	not applicable	not applicable	not applicable	not applicable	not applicable	not applicable	not applicable
305.994	0.05	5	14_K19_long_combined_small.mp4	fixationPostAnswer	not applicable	not applicable	not applicable	not applicable	not applicable	not applicable	not applicable	not applicable	not applicable	not applicable	not applicable	not applicable	not applicable	not applicable
306.044	5.95	5	14_K19_long_combined_small.mp4	displayCuriosity	7	308.332052737998	not applicable	not applicable	not applicable	not applicable	not applicable	not applicable	not applicable	not applicable	not applicable	not applicable	not applicable	not applicable
311.994	3.997	5	14_K19_long_combined_small.mp4	fixationPostCuriosity	not applicable	not applicable	not applicable	not applicable	not applicable	not applicable	not applicable	not applicable	not applicable	not applicable	not applicable	not applicable	not applicable	not applicable
317.993	6.002	6	03_H16_combined_small.mp4	displayMockVid	not applicable	not applicable	not applicable	not applicable	not applicable	not applicable	not applicable	not applicable	not applicable	not applicable	not applicable	not applicable	not applicable	not applicable
323.996	33.66	6	03_H16_combined_small.mp4	displayVid	not applicable	not applicable	The magician opened the can poured the coke and crushed the can without actually applying pressure with his hands. 	forgotten	forgotten	The magician is able to remove the dents from the can without touching it.	6	forgotten	forgotten	forgotten	forgotten	forgotten	forgotten	forgotten
357.988	4.004	6	03_H16_combined_small.mp4	fixationPostVid	not applicable	not applicable	not applicable	not applicable	not applicable	not applicable	not applicable	not applicable	not applicable	not applicable	not applicable	not applicable	not applicable	not applicable
361.992	6.002	6	03_H16_combined_small.mp4	displayAnswer	21 to 30	363.152272005998	not applicable	not applicable	not applicable	not applicable	not applicable	not applicable	not applicable	not applicable	not applicable	not applicable	not applicable	not applicable
367.994	0.049	6	03_H16_combined_small.mp4	fixationPostAnswer	not applicable	not applicable	not applicable	not applicable	not applicable	not applicable	not applicable	not applicable	not applicable	not applicable	not applicable	not applicable	not applicable	not applicable
368.043	5.95	6	03_H16_combined_small.mp4	displayCuriosity	7	370.963800260997	not applicable	not applicable	not applicable	not applicable	not applicable	not applicable	not applicable	not applicable	not applicable	not applicable	not applicable	not applicable
373.993	4.001	6	03_H16_combined_small.mp4	fixationPostCuriosity	not applicable	not applicable	not applicable	not applicable	not applicable	not applicable	not applicable	not applicable	not applicable	not applicable	not applicable	not applicable	not applicable	not applicable
379.989	6.005	7	22_K18_combined_small.mp4	displayMockVid	not applicable	not applicable	not applicable	not applicable	not applicable	not applicable	not applicable	not applicable	not applicable	not applicable	not applicable	not applicable	not applicable	not applicable
385.995	22.264	7	22_K18_combined_small.mp4	displayVid	not applicable	not applicable	Four decks of cards have merged in to graphics on the card. 	forgotten	forgotten	A pack of cards appears from a single piece of paper.	3	remembered	forgotten	forgotten	forgotten	forgotten	forgotten	forgotten
409.995	3.999	7	22_K18_combined_small.mp4	fixationPostVid	not applicable	not applicable	not applicable	not applicable	not applicable	not applicable	not applicable	not applicable	not applicable	not applicable	not applicable	not applicable	not applicable	not applicable
413.994	5.999	7	22_K18_combined_small.mp4	displayAnswer	11 to 20	415.064297437999	not applicable	not applicable	not applicable	not applicable	not applicable	not applicable	not applicable	not applicable	not applicable	not applicable	not applicable	not applicable
419.992	0.05	7	22_K18_combined_small.mp4	fixationPostAnswer	not applicable	not applicable	not applicable	not applicable	not applicable	not applicable	not applicable	not applicable	not applicable	not applicable	not applicable	not applicable	not applicable	not applicable
420.042	5.95	7	22_K18_combined_small.mp4	displayCuriosity	7	422.299707951999	not applicable	not applicable	not applicable	not applicable	not applicable	not applicable	not applicable	not applicable	not applicable	not applicable	not applicable	not applicable
425.992	3.998	7	22_K18_combined_small.mp4	fixationPostCuriosity	not applicable	not applicable	not applicable	not applicable	not applicable	not applicable	not applicable	not applicable	not applicable	not applicable	not applicable	not applicable	not applicable	not applicable
431.991	6.003	8	02_H10_combined_small.mp4	displayMockVid	not applicable	not applicable	not applicable	not applicable	not applicable	not applicable	not applicable	not applicable	not applicable	not applicable	not applicable	not applicable	not applicable	not applicable
437.994	30.891	8	02_H10_combined_small.mp4	displayVid	not applicable	not applicable	After slight of hand the card reappears intact. 	remembered	remembered	The magician magically repairs split card.	5	remembered	remembered	remembered	remembered	remembered	remembered	remembered
469.985	6.005	8	02_H10_combined_small.mp4	fixationPostVid	not applicable	not applicable	not applicable	not applicable	not applicable	not applicable	not applicable	not applicable	not applicable	not applicable	not applicable	not applicable	not applicable	not applicable
475.99	6.005	8	02_H10_combined_small.mp4	displayAnswer	0 to 10	477.237656669	not applicable	not applicable	not applicable	not applicable	not applicable	not applicable	not applicable	not applicable	not applicable	not applicable	not applicable	not applicable
481.995	0.049	8	02_H10_combined_small.mp4	fixationPostAnswer	not applicable	not applicable	not applicable	not applicable	not applicable	not applicable	not applicable	not applicable	not applicable	not applicable	not applicable	not applicable	not applicable	not applicable
482.044	5.947	8	02_H10_combined_small.mp4	displayCuriosity	7	483.537889545998	not applicable	not applicable	not applicable	not applicable	not applicable	not applicable	not applicable	not applicable	not applicable	not applicable	not applicable	not applicable
487.991	4	8	02_H10_combined_small.mp4	fixationPostCuriosity	not applicable	not applicable	not applicable	not applicable	not applicable	not applicable	not applicable	not applicable	not applicable	not applicable	not applicable	not applicable	not applicable	not applicable
493.986	6.007	9	29_H36_combined_small.mp4	displayMockVid	not applicable	not applicable	not applicable	not applicable	not applicable	not applicable	not applicable	not applicable	not applicable	not applicable	not applicable	not applicable	not applicable	not applicable
499.993	36.458	9	29_H36_combined_small.mp4	displayVid	not applicable	not applicable	No recall. 	forgotten	forgotten	The magician places the nut in the middle of the bold and it magically screws itself.	1	forgotten	forgotten	forgotten	forgotten	forgotten	forgotten	forgotten
537.984	4.005	9	29_H36_combined_small.mp4	fixationPostVid	not applicable	not applicable	not applicable	not applicable	not applicable	not applicable	not applicable	not applicable	not applicable	not applicable	not applicable	not applicable	not applicable	not applicable
541.989	6.002	9	29_H36_combined_small.mp4	displayAnswer	11 to 20	542.755745443999	not applicable	not applicable	not applicable	not applicable	not applicable	not applicable	not applicable	not applicable	not applicable	not applicable	not applicable	not applicable
547.991	0.049	9	29_H36_combined_small.mp4	fixationPostAnswer	not applicable	not applicable	not applicable	not applicable	not applicable	not applicable	not applicable	not applicable	not applicable	not applicable	not applicable	not applicable	not applicable	not applicable
548.04	5.951	9	29_H36_combined_small.mp4	displayCuriosity	7	550.607510793998	not applicable	not applicable	not applicable	not applicable	not applicable	not applicable	not applicable	not applicable	not applicable	not applicable	not applicable	not applicable
553.991	3.999	9	29_H36_combined_small.mp4	fixationPostCuriosity	not applicable	not applicable	not applicable	not applicable	not applicable	not applicable	not applicable	not applicable	not applicable	not applicable	not applicable	not applicable	not applicable	not applicable
559.984	6.005	10	30_H15_combined_small.mp4	displayMockVid	not applicable	not applicable	not applicable	not applicable	not applicable	not applicable	not applicable	not applicable	not applicable	not applicable	not applicable	not applicable	not applicable	not applicable
565.989	31.936	10	30_H15_combined_small.mp4	displayVid	not applicable	not applicable	No recall. 	forgotten	forgotten	When the magician starts to shake the card box, toothpicks start to fall out of the box and the cards have vanished.	4	forgotten	forgotten	forgotten	forgotten	forgotten	forgotten	forgotten
597.991	5.999	10	30_H15_combined_small.mp4	fixationPostVid	not applicable	not applicable	not applicable	not applicable	not applicable	not applicable	not applicable	not applicable	not applicable	not applicable	not applicable	not applicable	not applicable	not applicable
603.99	5.997	10	30_H15_combined_small.mp4	displayAnswer	21 to 30	606.526005159998	not applicable	not applicable	not applicable	not applicable	not applicable	not applicable	not applicable	not applicable	not applicable	not applicable	not applicable	not applicable
609.987	0.051	10	30_H15_combined_small.mp4	fixationPostAnswer	not applicable	not applicable	not applicable	not applicable	not applicable	not applicable	not applicable	not applicable	not applicable	not applicable	not applicable	not applicable	not applicable	not applicable
610.037	5.952	10	30_H15_combined_small.mp4	displayCuriosity	7	612.381174173999	not applicable	not applicable	not applicable	not applicable	not applicable	not applicable	not applicable	not applicable	not applicable	not applicable	not applicable	not applicable
615.989	6.001	10	30_H15_combined_small.mp4	fixationPostCuriosity	not applicable	not applicable	not applicable	not applicable	not applicable	not applicable	not applicable	not applicable	not applicable	not applicable	not applicable	not applicable	not applicable	not applicable
623.991	6.001	11	31_K3_combined_small.mp4	displayMockVid	not applicable	not applicable	not applicable	not applicable	not applicable	not applicable	not applicable	not applicable	not applicable	not applicable	not applicable	not applicable	not applicable	not applicable
629.992	25.931	11	31_K3_combined_small.mp4	displayVid	not applicable	not applicable	No recall.	forgotten	forgotten	The magician takes the leaf and turns it into a box of flowers.	4	forgotten	forgotten	forgotten	forgotten	forgotten	forgotten	forgotten
655.989	4.001	11	31_K3_combined_small.mp4	fixationPostVid	not applicable	not applicable	not applicable	not applicable	not applicable	not applicable	not applicable	not applicable	not applicable	not applicable	not applicable	not applicable	not applicable	not applicable
659.99	6.001	11	31_K3_combined_small.mp4	displayAnswer	0 to 10	660.866039911998	not applicable	not applicable	not applicable	not applicable	not applicable	not applicable	not applicable	not applicable	not applicable	not applicable	not applicable	not applicable
665.991	0.048	11	31_K3_combined_small.mp4	fixationPostAnswer	not applicable	not applicable	not applicable	not applicable	not applicable	not applicable	not applicable	not applicable	not applicable	not applicable	not applicable	not applicable	not applicable	not applicable
666.039	5.951	11	31_K3_combined_small.mp4	displayCuriosity	7	669.912131720001	not applicable	not applicable	not applicable	not applicable	not applicable	not applicable	not applicable	not applicable	not applicable	not applicable	not applicable	not applicable
671.99	9.998	11	31_K3_combined_small.mp4	fixationPostCuriosity	not applicable	not applicable	not applicable	not applicable	not applicable	not applicable	not applicable	not applicable	not applicable	not applicable	not applicable	not applicable	not applicable	not applicable
683.99	6.033	12	13_Trick6_short_combined_small.mp4	displayMockVid	not applicable	not applicable	not applicable	not applicable	not applicable	not applicable	not applicable	not applicable	not applicable	not applicable	not applicable	not applicable	not applicable	not applicable
690.023	37.666	12	13_Trick6_short_combined_small.mp4	displayVid	not applicable	not applicable	No recall.	forgotten	forgotten	The magician puts the ball under the cup which then turns into an egg and then becomes a chicklet.	3	forgotten	forgotten	forgotten	forgotten	forgotten	forgotten	forgotten
727.988	4.001	12	13_Trick6_short_combined_small.mp4	fixationPostVid	not applicable	not applicable	not applicable	not applicable	not applicable	not applicable	not applicable	not applicable	not applicable	not applicable	not applicable	not applicable	not applicable	not applicable
731.989	6.001	12	13_Trick6_short_combined_small.mp4	displayAnswer	11 to 20	732.800390155	not applicable	not applicable	not applicable	not applicable	not applicable	not applicable	not applicable	not applicable	not applicable	not applicable	not applicable	not applicable
737.99	0.048	12	13_Trick6_short_combined_small.mp4	fixationPostAnswer	not applicable	not applicable	not applicable	not applicable	not applicable	not applicable	not applicable	not applicable	not applicable	not applicable	not applicable	not applicable	not applicable	not applicable
738.039	5.953	12	13_Trick6_short_combined_small.mp4	displayCuriosity	7	739.372069585999	not applicable	not applicable	not applicable	not applicable	not applicable	not applicable	not applicable	not applicable	not applicable	not applicable	not applicable	not applicable
743.992	3.997	12	13_Trick6_short_combined_small.mp4	fixationPostCuriosity	not applicable	not applicable	not applicable	not applicable	not applicable	not applicable	not applicable	not applicable	not applicable	not applicable	not applicable	not applicable	not applicable	not applicable
