onset	duration	trial	stim_file	event	response	response_timestamp	response_recall	trial_type_cuedRecallStrict	trial_type_cuedRecallLenient	response_recognition	response_confidence	trial_type_allConf	trial_type_highConf	trial_type_aboveAvgConf	trial_type_rememberedStrictAboveAvg	trial_type_rememberedLenientAboveAvg	trial_type_rememberedStrictHigh	trial_type_rememberedLenientHigh
2	6.02	1	05_K4_combined_small.mp4	displayMockVid	not applicable	not applicable	not applicable	not applicable	not applicable	not applicable	not applicable	not applicable	not applicable	not applicable	not applicable	not applicable	not applicable	not applicable
8.02	31.727	1	05_K4_combined_small.mp4	displayVid	not applicable	not applicable	The magician appeared to restore the Rubik's cube without actually turning the components.	remembered	remembered	The magician solves the rubix cube by spinning it in the air.	6	remembered	remembered	remembered	remembered	remembered	remembered	remembered
40	3.999	1	05_K4_combined_small.mp4	fixationPostVid	not applicable	not applicable	not applicable	not applicable	not applicable	not applicable	not applicable	not applicable	not applicable	not applicable	not applicable	not applicable	not applicable	not applicable
43.999	6.002	1	05_K4_combined_small.mp4	displayAnswer	11 to 20	46.1997928599994	not applicable	not applicable	not applicable	not applicable	not applicable	not applicable	not applicable	not applicable	not applicable	not applicable	not applicable	not applicable
50.001	0.082	1	05_K4_combined_small.mp4	fixationPostAnswer	not applicable	not applicable	not applicable	not applicable	not applicable	not applicable	not applicable	not applicable	not applicable	not applicable	not applicable	not applicable	not applicable	not applicable
50.083	5.95	1	05_K4_combined_small.mp4	displayCuriosity	6	55.036045539	not applicable	not applicable	not applicable	not applicable	not applicable	not applicable	not applicable	not applicable	not applicable	not applicable	not applicable	not applicable
56.033	4.001	1	05_K4_combined_small.mp4	fixationPostCuriosity	not applicable	not applicable	not applicable	not applicable	not applicable	not applicable	not applicable	not applicable	not applicable	not applicable	not applicable	not applicable	not applicable	not applicable
61.999	6.003	2	01_H35_combined_small.mp4	displayMockVid	not applicable	not applicable	not applicable	not applicable	not applicable	not applicable	not applicable	not applicable	not applicable	not applicable	not applicable	not applicable	not applicable	not applicable
68.002	37.693	2	01_H35_combined_small.mp4	displayVid	not applicable	not applicable	The participant was asked to mark one card and put it back to the stack. The magician reshuffled the stack and was able to find the card in the middle of the stack. 	forgotten	forgotten	The volunteer signs a card that is placed into the Ziploc bag, but then appears in the card box.	2	forgotten	forgotten	forgotten	forgotten	forgotten	forgotten	forgotten
105.999	3.997	2	01_H35_combined_small.mp4	fixationPostVid	not applicable	not applicable	not applicable	not applicable	not applicable	not applicable	not applicable	not applicable	not applicable	not applicable	not applicable	not applicable	not applicable	not applicable
109.996	6.002	2	01_H35_combined_small.mp4	displayAnswer	21 to 30	112.633922841	not applicable	not applicable	not applicable	not applicable	not applicable	not applicable	not applicable	not applicable	not applicable	not applicable	not applicable	not applicable
115.998	0.05	2	01_H35_combined_small.mp4	fixationPostAnswer	not applicable	not applicable	not applicable	not applicable	not applicable	not applicable	not applicable	not applicable	not applicable	not applicable	not applicable	not applicable	not applicable	not applicable
116.048	5.95	2	01_H35_combined_small.mp4	displayCuriosity	3	121.071275867002	not applicable	not applicable	not applicable	not applicable	not applicable	not applicable	not applicable	not applicable	not applicable	not applicable	not applicable	not applicable
121.998	7.995	2	01_H35_combined_small.mp4	fixationPostCuriosity	not applicable	not applicable	not applicable	not applicable	not applicable	not applicable	not applicable	not applicable	not applicable	not applicable	not applicable	not applicable	not applicable	not applicable
131.998	6.002	3	26_S30_combined_small.mp4	displayMockVid	not applicable	not applicable	not applicable	not applicable	not applicable	not applicable	not applicable	not applicable	not applicable	not applicable	not applicable	not applicable	not applicable	not applicable
138	25.201	3	26_S30_combined_small.mp4	displayVid	not applicable	not applicable	no recall	forgotten	forgotten	The magician is able to join the two separated parts of the stick.	3	forgotten	forgotten	forgotten	forgotten	forgotten	forgotten	forgotten
163.998	4	3	26_S30_combined_small.mp4	fixationPostVid	not applicable	not applicable	not applicable	not applicable	not applicable	not applicable	not applicable	not applicable	not applicable	not applicable	not applicable	not applicable	not applicable	not applicable
167.998	6	3	26_S30_combined_small.mp4	displayAnswer	21 to 30	169.843652406998	not applicable	not applicable	not applicable	not applicable	not applicable	not applicable	not applicable	not applicable	not applicable	not applicable	not applicable	not applicable
173.998	0.049	3	26_S30_combined_small.mp4	fixationPostAnswer	not applicable	not applicable	not applicable	not applicable	not applicable	not applicable	not applicable	not applicable	not applicable	not applicable	not applicable	not applicable	not applicable	not applicable
174.047	5.95	3	26_S30_combined_small.mp4	displayCuriosity	2	179.189455322001	not applicable	not applicable	not applicable	not applicable	not applicable	not applicable	not applicable	not applicable	not applicable	not applicable	not applicable	not applicable
179.996	10.001	3	26_S30_combined_small.mp4	fixationPostCuriosity	not applicable	not applicable	not applicable	not applicable	not applicable	not applicable	not applicable	not applicable	not applicable	not applicable	not applicable	not applicable	not applicable	not applicable
191.997	6.03	4	36_Trick7_short_combined_small.mp4	displayMockVid	not applicable	not applicable	not applicable	not applicable	not applicable	not applicable	not applicable	not applicable	not applicable	not applicable	not applicable	not applicable	not applicable	not applicable
198.027	20.616	4	36_Trick7_short_combined_small.mp4	displayVid	not applicable	not applicable	One ball was given and held by the lady on each hand she was told to squeeze the ball in order to conceal it As she relaxed her hand The ball on one hand of the lady disappeared and there were 2 balls on the other hand of the lady	remembered	remembered	The magician gets the volunteer to hold a foam ball, which he then transforms into  two balls.	5	remembered	remembered	remembered	remembered	remembered	remembered	remembered
219.998	3.997	4	36_Trick7_short_combined_small.mp4	fixationPostVid	not applicable	not applicable	not applicable	not applicable	not applicable	not applicable	not applicable	not applicable	not applicable	not applicable	not applicable	not applicable	not applicable	not applicable
223.995	6.003	4	36_Trick7_short_combined_small.mp4	displayAnswer	31 or more	225.760001138999	not applicable	not applicable	not applicable	not applicable	not applicable	not applicable	not applicable	not applicable	not applicable	not applicable	not applicable	not applicable
229.997	0.05	4	36_Trick7_short_combined_small.mp4	fixationPostAnswer	not applicable	not applicable	not applicable	not applicable	not applicable	not applicable	not applicable	not applicable	not applicable	not applicable	not applicable	not applicable	not applicable	not applicable
230.047	5.95	4	36_Trick7_short_combined_small.mp4	displayCuriosity	4	233.456553153999	not applicable	not applicable	not applicable	not applicable	not applicable	not applicable	not applicable	not applicable	not applicable	not applicable	not applicable	not applicable
235.997	4	4	36_Trick7_short_combined_small.mp4	fixationPostCuriosity	not applicable	not applicable	not applicable	not applicable	not applicable	not applicable	not applicable	not applicable	not applicable	not applicable	not applicable	not applicable	not applicable	not applicable
241.996	6.035	5	13_Trick6_short_combined_small.mp4	displayMockVid	not applicable	not applicable	not applicable	not applicable	not applicable	not applicable	not applicable	not applicable	not applicable	not applicable	not applicable	not applicable	not applicable	not applicable
248.032	37.65	5	13_Trick6_short_combined_small.mp4	displayVid	not applicable	not applicable	no recall	forgotten	forgotten	The magician puts a ball under the cup, which then turns into a larger ball and then becomes an egg.	1	remembered	forgotten	forgotten	forgotten	forgotten	forgotten	forgotten
285.997	4	5	13_Trick6_short_combined_small.mp4	fixationPostVid	not applicable	not applicable	not applicable	not applicable	not applicable	not applicable	not applicable	not applicable	not applicable	not applicable	not applicable	not applicable	not applicable	not applicable
289.997	5.999	5	13_Trick6_short_combined_small.mp4	displayAnswer	31 or more	292.323010073	not applicable	not applicable	not applicable	not applicable	not applicable	not applicable	not applicable	not applicable	not applicable	not applicable	not applicable	not applicable
295.997	0.05	5	13_Trick6_short_combined_small.mp4	fixationPostAnswer	not applicable	not applicable	not applicable	not applicable	not applicable	not applicable	not applicable	not applicable	not applicable	not applicable	not applicable	not applicable	not applicable	not applicable
296.046	5.95	5	13_Trick6_short_combined_small.mp4	displayCuriosity	4	299.238290241999	not applicable	not applicable	not applicable	not applicable	not applicable	not applicable	not applicable	not applicable	not applicable	not applicable	not applicable	not applicable
301.996	3.999	5	13_Trick6_short_combined_small.mp4	fixationPostCuriosity	not applicable	not applicable	not applicable	not applicable	not applicable	not applicable	not applicable	not applicable	not applicable	not applicable	not applicable	not applicable	not applicable	not applicable
307.996	6.033	6	21_S15_combined_small.mp4	displayMockVid	not applicable	not applicable	not applicable	not applicable	not applicable	not applicable	not applicable	not applicable	not applicable	not applicable	not applicable	not applicable	not applicable	not applicable
314.028	31.974	6	21_S15_combined_small.mp4	displayVid	not applicable	not applicable	The magician appeared to transfer the coin into the glass through the bottom	remembered	remembered	The magician places a ring on the stem of the glass without breaking it.	4	remembered	remembered	remembered	remembered	remembered	remembered	remembered
347.997	3.999	6	21_S15_combined_small.mp4	fixationPostVid	not applicable	not applicable	not applicable	not applicable	not applicable	not applicable	not applicable	not applicable	not applicable	not applicable	not applicable	not applicable	not applicable	not applicable
351.996	5.999	6	21_S15_combined_small.mp4	displayAnswer	31 or more	353.740160944999	not applicable	not applicable	not applicable	not applicable	not applicable	not applicable	not applicable	not applicable	not applicable	not applicable	not applicable	not applicable
357.995	0.047	6	21_S15_combined_small.mp4	fixationPostAnswer	not applicable	not applicable	not applicable	not applicable	not applicable	not applicable	not applicable	not applicable	not applicable	not applicable	not applicable	not applicable	not applicable	not applicable
358.042	5.953	6	21_S15_combined_small.mp4	displayCuriosity	4	360.260171408001	not applicable	not applicable	not applicable	not applicable	not applicable	not applicable	not applicable	not applicable	not applicable	not applicable	not applicable	not applicable
363.995	4	6	21_S15_combined_small.mp4	fixationPostCuriosity	not applicable	not applicable	not applicable	not applicable	not applicable	not applicable	not applicable	not applicable	not applicable	not applicable	not applicable	not applicable	not applicable	not applicable
369.994	6.036	7	18_Trick4_combined_small.mp4	displayMockVid	not applicable	not applicable	not applicable	not applicable	not applicable	not applicable	not applicable	not applicable	not applicable	not applicable	not applicable	not applicable	not applicable	not applicable
376.03	47.809	7	18_Trick4_combined_small.mp4	displayVid	not applicable	not applicable	no recall	forgotten	forgotten	As the balloon deflates, the phones starts moving across the surface without the magician touching it.	3	forgotten	forgotten	forgotten	forgotten	forgotten	forgotten	forgotten
423.994	3.997	7	18_Trick4_combined_small.mp4	fixationPostVid	not applicable	not applicable	not applicable	not applicable	not applicable	not applicable	not applicable	not applicable	not applicable	not applicable	not applicable	not applicable	not applicable	not applicable
427.992	6.002	7	18_Trick4_combined_small.mp4	displayAnswer	11 to 20	429.459847904	not applicable	not applicable	not applicable	not applicable	not applicable	not applicable	not applicable	not applicable	not applicable	not applicable	not applicable	not applicable
433.994	0.05	7	18_Trick4_combined_small.mp4	fixationPostAnswer	not applicable	not applicable	not applicable	not applicable	not applicable	not applicable	not applicable	not applicable	not applicable	not applicable	not applicable	not applicable	not applicable	not applicable
434.044	5.95	7	18_Trick4_combined_small.mp4	displayCuriosity	6	438.132980923001	not applicable	not applicable	not applicable	not applicable	not applicable	not applicable	not applicable	not applicable	not applicable	not applicable	not applicable	not applicable
439.994	4.003	7	18_Trick4_combined_small.mp4	fixationPostCuriosity	not applicable	not applicable	not applicable	not applicable	not applicable	not applicable	not applicable	not applicable	not applicable	not applicable	not applicable	not applicable	not applicable	not applicable
445.993	6.001	8	35_Trick32_long_combined_small.mp4	displayMockVid	not applicable	not applicable	not applicable	not applicable	not applicable	not applicable	not applicable	not applicable	not applicable	not applicable	not applicable	not applicable	not applicable	not applicable
451.994	46.968	8	35_Trick32_long_combined_small.mp4	displayVid	not applicable	not applicable	no recall	forgotten	forgotten	The magician shows a silver and a copper coin. Every time he puts a coin in his pocket, the coin appears again in his hand.	1	forgotten	forgotten	forgotten	forgotten	forgotten	forgotten	forgotten
499.994	5.999	8	35_Trick32_long_combined_small.mp4	fixationPostVid	not applicable	not applicable	not applicable	not applicable	not applicable	not applicable	not applicable	not applicable	not applicable	not applicable	not applicable	not applicable	not applicable	not applicable
505.994	6	8	35_Trick32_long_combined_small.mp4	displayAnswer	21 to 30	507.189307817	not applicable	not applicable	not applicable	not applicable	not applicable	not applicable	not applicable	not applicable	not applicable	not applicable	not applicable	not applicable
511.993	0.051	8	35_Trick32_long_combined_small.mp4	fixationPostAnswer	not applicable	not applicable	not applicable	not applicable	not applicable	not applicable	not applicable	not applicable	not applicable	not applicable	not applicable	not applicable	not applicable	not applicable
512.044	5.946	8	35_Trick32_long_combined_small.mp4	displayCuriosity	2	515.595623034002	not applicable	not applicable	not applicable	not applicable	not applicable	not applicable	not applicable	not applicable	not applicable	not applicable	not applicable	not applicable
517.99	4.003	8	35_Trick32_long_combined_small.mp4	fixationPostCuriosity	not applicable	not applicable	not applicable	not applicable	not applicable	not applicable	not applicable	not applicable	not applicable	not applicable	not applicable	not applicable	not applicable	not applicable
523.992	6.037	9	17_Trick37_combined_small.mp4	displayMockVid	not applicable	not applicable	not applicable	not applicable	not applicable	not applicable	not applicable	not applicable	not applicable	not applicable	not applicable	not applicable	not applicable	not applicable
530.029	46.299	9	17_Trick37_combined_small.mp4	displayVid	not applicable	not applicable	no recall	forgotten	forgotten	The magician has two elastic bands and tangles them up. They then become untwisted.	3	forgotten	forgotten	forgotten	forgotten	forgotten	forgotten	forgotten
577.994	3.999	9	17_Trick37_combined_small.mp4	fixationPostVid	not applicable	not applicable	not applicable	not applicable	not applicable	not applicable	not applicable	not applicable	not applicable	not applicable	not applicable	not applicable	not applicable	not applicable
581.992	5.998	9	17_Trick37_combined_small.mp4	displayAnswer	11 to 20	583.213790574999	not applicable	not applicable	not applicable	not applicable	not applicable	not applicable	not applicable	not applicable	not applicable	not applicable	not applicable	not applicable
587.991	0.051	9	17_Trick37_combined_small.mp4	fixationPostAnswer	not applicable	not applicable	not applicable	not applicable	not applicable	not applicable	not applicable	not applicable	not applicable	not applicable	not applicable	not applicable	not applicable	not applicable
588.041	5.951	9	17_Trick37_combined_small.mp4	displayCuriosity	4	591.668515259	not applicable	not applicable	not applicable	not applicable	not applicable	not applicable	not applicable	not applicable	not applicable	not applicable	not applicable	not applicable
593.992	4	9	17_Trick37_combined_small.mp4	fixationPostCuriosity	not applicable	not applicable	not applicable	not applicable	not applicable	not applicable	not applicable	not applicable	not applicable	not applicable	not applicable	not applicable	not applicable	not applicable
599.991	6.031	10	15_S18_combined_small.mp4	displayMockVid	not applicable	not applicable	not applicable	not applicable	not applicable	not applicable	not applicable	not applicable	not applicable	not applicable	not applicable	not applicable	not applicable	not applicable
606.022	31.938	10	15_S18_combined_small.mp4	displayVid	not applicable	not applicable	no recall	forgotten	forgotten	The magician pulls three boxes containing flowers from a paper bag.	5	remembered	remembered	remembered	remembered	remembered	remembered	remembered
637.992	6	10	15_S18_combined_small.mp4	fixationPostVid	not applicable	not applicable	not applicable	not applicable	not applicable	not applicable	not applicable	not applicable	not applicable	not applicable	not applicable	not applicable	not applicable	not applicable
643.992	5.999	10	15_S18_combined_small.mp4	displayAnswer	31 or more	646.978241733999	not applicable	not applicable	not applicable	not applicable	not applicable	not applicable	not applicable	not applicable	not applicable	not applicable	not applicable	not applicable
649.991	0.051	10	15_S18_combined_small.mp4	fixationPostAnswer	not applicable	not applicable	not applicable	not applicable	not applicable	not applicable	not applicable	not applicable	not applicable	not applicable	not applicable	not applicable	not applicable	not applicable
650.042	5.947	10	15_S18_combined_small.mp4	displayCuriosity	1	652.552649842	not applicable	not applicable	not applicable	not applicable	not applicable	not applicable	not applicable	not applicable	not applicable	not applicable	not applicable	not applicable
655.989	6.002	10	15_S18_combined_small.mp4	fixationPostCuriosity	not applicable	not applicable	not applicable	not applicable	not applicable	not applicable	not applicable	not applicable	not applicable	not applicable	not applicable	not applicable	not applicable	not applicable
663.991	6.027	11	19_H17_combined_small.mp4	displayMockVid	not applicable	not applicable	not applicable	not applicable	not applicable	not applicable	not applicable	not applicable	not applicable	not applicable	not applicable	not applicable	not applicable	not applicable
670.018	46.626	11	19_H17_combined_small.mp4	displayVid	not applicable	not applicable	no recall	forgotten	forgotten	The magician uses a guillotine to slice breadsticks, but not the volunteer's finger.	6	remembered	remembered	remembered	remembered	remembered	remembered	remembered
717.991	4	11	19_H17_combined_small.mp4	fixationPostVid	not applicable	not applicable	not applicable	not applicable	not applicable	not applicable	not applicable	not applicable	not applicable	not applicable	not applicable	not applicable	not applicable	not applicable
721.991	5.999	11	19_H17_combined_small.mp4	displayAnswer	21 to 30	722.840905028999	not applicable	not applicable	not applicable	not applicable	not applicable	not applicable	not applicable	not applicable	not applicable	not applicable	not applicable	not applicable
727.99	0.05	11	19_H17_combined_small.mp4	fixationPostAnswer	not applicable	not applicable	not applicable	not applicable	not applicable	not applicable	not applicable	not applicable	not applicable	not applicable	not applicable	not applicable	not applicable	not applicable
728.04	5.95	11	19_H17_combined_small.mp4	displayCuriosity	7	732.4302001	not applicable	not applicable	not applicable	not applicable	not applicable	not applicable	not applicable	not applicable	not applicable	not applicable	not applicable	not applicable
733.99	9.996	11	19_H17_combined_small.mp4	fixationPostCuriosity	not applicable	not applicable	not applicable	not applicable	not applicable	not applicable	not applicable	not applicable	not applicable	not applicable	not applicable	not applicable	not applicable	not applicable
746.004	6.038	12	25_S25_combined_small.mp4	displayMockVid	not applicable	not applicable	not applicable	not applicable	not applicable	not applicable	not applicable	not applicable	not applicable	not applicable	not applicable	not applicable	not applicable	not applicable
752.042	52.646	12	25_S25_combined_small.mp4	displayVid	not applicable	not applicable	no recall	forgotten	forgotten	The magician makes bread rolls appear in his hands.	2	forgotten	forgotten	forgotten	forgotten	forgotten	forgotten	forgotten
805.999	4.001	12	25_S25_combined_small.mp4	fixationPostVid	not applicable	not applicable	not applicable	not applicable	not applicable	not applicable	not applicable	not applicable	not applicable	not applicable	not applicable	not applicable	not applicable	not applicable
810	6.004	12	25_S25_combined_small.mp4	displayAnswer	0 to 10	810.704984966	not applicable	not applicable	not applicable	not applicable	not applicable	not applicable	not applicable	not applicable	not applicable	not applicable	not applicable	not applicable
816.004	0.05	12	25_S25_combined_small.mp4	fixationPostAnswer	not applicable	not applicable	not applicable	not applicable	not applicable	not applicable	not applicable	not applicable	not applicable	not applicable	not applicable	not applicable	not applicable	not applicable
816.054	5.952	12	25_S25_combined_small.mp4	displayCuriosity	5	821.240401356001	not applicable	not applicable	not applicable	not applicable	not applicable	not applicable	not applicable	not applicable	not applicable	not applicable	not applicable	not applicable
822.006	3.999	12	25_S25_combined_small.mp4	fixationPostCuriosity	not applicable	not applicable	not applicable	not applicable	not applicable	not applicable	not applicable	not applicable	not applicable	not applicable	not applicable	not applicable	not applicable	not applicable
