onset	duration	trial	stim_file	event	response	response_timestamp	response_recall	trial_type_cuedRecallStrict	trial_type_cuedRecallLenient	response_recognition	response_confidence	trial_type_allConf	trial_type_highConf	trial_type_aboveAvgConf	trial_type_rememberedStrictAboveAvg	trial_type_rememberedLenientAboveAvg	trial_type_rememberedStrictHigh	trial_type_rememberedLenientHigh
2	6.013	1	08_S12_combined_small.mp4	displayMockVid	not applicable	not applicable	not applicable	not applicable	not applicable	not applicable	not applicable	not applicable	not applicable	not applicable	not applicable	not applicable	not applicable	not applicable
8.013	42.452	1	08_S12_combined_small.mp4	displayVid	not applicable	not applicable	The magician punched a hole and then pulled the hole off and the card was complete	remembered	remembered	The magician punches a hole in the card. He then moves the hole from one corner to another before finally revealing that it is actually a black spot on the card.	6	remembered	remembered	remembered	remembered	remembered	remembered	remembered
52	3.995	1	08_S12_combined_small.mp4	fixationPostVid	not applicable	not applicable	not applicable	not applicable	not applicable	not applicable	not applicable	not applicable	not applicable	not applicable	not applicable	not applicable	not applicable	not applicable
55.995	6.003	1	08_S12_combined_small.mp4	displayAnswer	21 to 30	58.1405225940107	not applicable	not applicable	not applicable	not applicable	not applicable	not applicable	not applicable	not applicable	not applicable	not applicable	not applicable	not applicable
61.999	0.083	1	08_S12_combined_small.mp4	fixationPostAnswer	not applicable	not applicable	not applicable	not applicable	not applicable	not applicable	not applicable	not applicable	not applicable	not applicable	not applicable	not applicable	not applicable	not applicable
62.082	5.972	1	08_S12_combined_small.mp4	displayCuriosity	5	68.0074784140161	not applicable	not applicable	not applicable	not applicable	not applicable	not applicable	not applicable	not applicable	not applicable	not applicable	not applicable	not applicable
68.054	3.996	1	08_S12_combined_small.mp4	fixationPostCuriosity	not applicable	not applicable	not applicable	not applicable	not applicable	not applicable	not applicable	not applicable	not applicable	not applicable	not applicable	not applicable	not applicable	not applicable
73.999	6.033	2	18_Trick4_combined_small.mp4	displayMockVid	not applicable	not applicable	not applicable	not applicable	not applicable	not applicable	not applicable	not applicable	not applicable	not applicable	not applicable	not applicable	not applicable	not applicable
80.032	47.819	2	18_Trick4_combined_small.mp4	displayVid	not applicable	not applicable	No recall	forgotten	forgotten	The magician puts the mobile phone inside the balloon with a simple gesture of his hands.	5	remembered	remembered	remembered	remembered	remembered	remembered	remembered
127.999	3.999	2	18_Trick4_combined_small.mp4	fixationPostVid	not applicable	not applicable	not applicable	not applicable	not applicable	not applicable	not applicable	not applicable	not applicable	not applicable	not applicable	not applicable	not applicable	not applicable
131.998	6	2	18_Trick4_combined_small.mp4	displayAnswer	31 or more	133.223106699006	not applicable	not applicable	not applicable	not applicable	not applicable	not applicable	not applicable	not applicable	not applicable	not applicable	not applicable	not applicable
137.998	0.049	2	18_Trick4_combined_small.mp4	fixationPostAnswer	not applicable	not applicable	not applicable	not applicable	not applicable	not applicable	not applicable	not applicable	not applicable	not applicable	not applicable	not applicable	not applicable	not applicable
138.047	5.945	2	18_Trick4_combined_small.mp4	displayCuriosity	6	143.10707166401	not applicable	not applicable	not applicable	not applicable	not applicable	not applicable	not applicable	not applicable	not applicable	not applicable	not applicable	not applicable
143.992	8.005	2	18_Trick4_combined_small.mp4	fixationPostCuriosity	not applicable	not applicable	not applicable	not applicable	not applicable	not applicable	not applicable	not applicable	not applicable	not applicable	not applicable	not applicable	not applicable	not applicable
153.997	6.036	3	04_S9_combined_small.mp4	displayMockVid	not applicable	not applicable	not applicable	not applicable	not applicable	not applicable	not applicable	not applicable	not applicable	not applicable	not applicable	not applicable	not applicable	not applicable
160.033	32.449	3	04_S9_combined_small.mp4	displayVid	not applicable	not applicable	The colour of the cards changed from blue to red.	forgotten	remembered	The cards magically change their appearance.	4	remembered	remembered	forgotten	forgotten	remembered	remembered	remembered
193.996	4.001	3	04_S9_combined_small.mp4	fixationPostVid	not applicable	not applicable	not applicable	not applicable	not applicable	not applicable	not applicable	not applicable	not applicable	not applicable	not applicable	not applicable	not applicable	not applicable
197.997	6.001	3	04_S9_combined_small.mp4	displayAnswer	21 to 30	200.769911145006	not applicable	not applicable	not applicable	not applicable	not applicable	not applicable	not applicable	not applicable	not applicable	not applicable	not applicable	not applicable
203.998	0.05	3	04_S9_combined_small.mp4	fixationPostAnswer	not applicable	not applicable	not applicable	not applicable	not applicable	not applicable	not applicable	not applicable	not applicable	not applicable	not applicable	not applicable	not applicable	not applicable
204.047	5.95	3	04_S9_combined_small.mp4	displayCuriosity	6	207.708941631019	not applicable	not applicable	not applicable	not applicable	not applicable	not applicable	not applicable	not applicable	not applicable	not applicable	not applicable	not applicable
209.997	10	3	04_S9_combined_small.mp4	fixationPostCuriosity	not applicable	not applicable	not applicable	not applicable	not applicable	not applicable	not applicable	not applicable	not applicable	not applicable	not applicable	not applicable	not applicable	not applicable
221.997	6.036	4	29_H36_combined_small.mp4	displayMockVid	not applicable	not applicable	not applicable	not applicable	not applicable	not applicable	not applicable	not applicable	not applicable	not applicable	not applicable	not applicable	not applicable	not applicable
228.033	36.414	4	29_H36_combined_small.mp4	displayVid	not applicable	not applicable	The nut spun off the bolt by itself	remembered	remembered	The nut is placed on the middle of the bold by the volunteer and magically unscrews itself.	5	remembered	remembered	remembered	remembered	remembered	remembered	remembered
265.998	3.997	4	29_H36_combined_small.mp4	fixationPostVid	not applicable	not applicable	not applicable	not applicable	not applicable	not applicable	not applicable	not applicable	not applicable	not applicable	not applicable	not applicable	not applicable	not applicable
269.996	6.001	4	29_H36_combined_small.mp4	displayAnswer	11 to 20	271.243563141994	not applicable	not applicable	not applicable	not applicable	not applicable	not applicable	not applicable	not applicable	not applicable	not applicable	not applicable	not applicable
275.997	0.05	4	29_H36_combined_small.mp4	fixationPostAnswer	not applicable	not applicable	not applicable	not applicable	not applicable	not applicable	not applicable	not applicable	not applicable	not applicable	not applicable	not applicable	not applicable	not applicable
276.046	5.946	4	29_H36_combined_small.mp4	displayCuriosity	7	277.977826809016	not applicable	not applicable	not applicable	not applicable	not applicable	not applicable	not applicable	not applicable	not applicable	not applicable	not applicable	not applicable
281.992	4.002	4	29_H36_combined_small.mp4	fixationPostCuriosity	not applicable	not applicable	not applicable	not applicable	not applicable	not applicable	not applicable	not applicable	not applicable	not applicable	not applicable	not applicable	not applicable	not applicable
287.996	6.035	5	13_Trick6_short_combined_small.mp4	displayMockVid	not applicable	not applicable	not applicable	not applicable	not applicable	not applicable	not applicable	not applicable	not applicable	not applicable	not applicable	not applicable	not applicable	not applicable
294.031	37.668	5	13_Trick6_short_combined_small.mp4	displayVid	not applicable	not applicable	The red ball disappeared from the cup and then was shown to appear again under the cup	forgotten	remembered	The magician puts the ball under the cup and makes it disappear.	5	forgotten	forgotten	forgotten	forgotten	remembered	forgotten	remembered
331.994	4.002	5	13_Trick6_short_combined_small.mp4	fixationPostVid	not applicable	not applicable	not applicable	not applicable	not applicable	not applicable	not applicable	not applicable	not applicable	not applicable	not applicable	not applicable	not applicable	not applicable
335.997	5.998	5	13_Trick6_short_combined_small.mp4	displayAnswer	31 or more	336.866943357018	not applicable	not applicable	not applicable	not applicable	not applicable	not applicable	not applicable	not applicable	not applicable	not applicable	not applicable	not applicable
341.995	0.05	5	13_Trick6_short_combined_small.mp4	fixationPostAnswer	not applicable	not applicable	not applicable	not applicable	not applicable	not applicable	not applicable	not applicable	not applicable	not applicable	not applicable	not applicable	not applicable	not applicable
342.045	5.95	5	13_Trick6_short_combined_small.mp4	displayCuriosity	5	344.887303386	not applicable	not applicable	not applicable	not applicable	not applicable	not applicable	not applicable	not applicable	not applicable	not applicable	not applicable	not applicable
347.995	3.997	5	13_Trick6_short_combined_small.mp4	fixationPostCuriosity	not applicable	not applicable	not applicable	not applicable	not applicable	not applicable	not applicable	not applicable	not applicable	not applicable	not applicable	not applicable	not applicable	not applicable
353.993	6.038	6	01_H35_combined_small.mp4	displayMockVid	not applicable	not applicable	not applicable	not applicable	not applicable	not applicable	not applicable	not applicable	not applicable	not applicable	not applicable	not applicable	not applicable	not applicable
360.03	37.649	6	01_H35_combined_small.mp4	displayVid	not applicable	not applicable	No recall	forgotten	forgotten	The volunteer signs a card that is placed into the Ziploc bag, but then appears in the card box.	4	forgotten	forgotten	forgotten	forgotten	forgotten	forgotten	forgotten
397.993	4.003	6	01_H35_combined_small.mp4	fixationPostVid	not applicable	not applicable	not applicable	not applicable	not applicable	not applicable	not applicable	not applicable	not applicable	not applicable	not applicable	not applicable	not applicable	not applicable
401.996	5.998	6	01_H35_combined_small.mp4	displayAnswer	0 to 10	403.518593582994	not applicable	not applicable	not applicable	not applicable	not applicable	not applicable	not applicable	not applicable	not applicable	not applicable	not applicable	not applicable
407.994	0.049	6	01_H35_combined_small.mp4	fixationPostAnswer	not applicable	not applicable	not applicable	not applicable	not applicable	not applicable	not applicable	not applicable	not applicable	not applicable	not applicable	not applicable	not applicable	not applicable
408.044	5.95	6	01_H35_combined_small.mp4	displayCuriosity	7	412.637641069014	not applicable	not applicable	not applicable	not applicable	not applicable	not applicable	not applicable	not applicable	not applicable	not applicable	not applicable	not applicable
413.994	3.996	6	01_H35_combined_small.mp4	fixationPostCuriosity	not applicable	not applicable	not applicable	not applicable	not applicable	not applicable	not applicable	not applicable	not applicable	not applicable	not applicable	not applicable	not applicable	not applicable
419.99	6.039	7	30_H15_combined_small.mp4	displayMockVid	not applicable	not applicable	not applicable	not applicable	not applicable	not applicable	not applicable	not applicable	not applicable	not applicable	not applicable	not applicable	not applicable	not applicable
426.03	31.894	7	30_H15_combined_small.mp4	displayVid	not applicable	not applicable	The match was pushed into the pack of cards and then pulled out whole	forgotten	forgotten	The magician pierces the deck of cards with a toothpick, but afterwards there is no hole.	6	forgotten	forgotten	forgotten	forgotten	forgotten	forgotten	forgotten
457.994	4.002	7	30_H15_combined_small.mp4	fixationPostVid	not applicable	not applicable	not applicable	not applicable	not applicable	not applicable	not applicable	not applicable	not applicable	not applicable	not applicable	not applicable	not applicable	not applicable
461.996	5.997	7	30_H15_combined_small.mp4	displayAnswer	21 to 30	463.945486212993	not applicable	not applicable	not applicable	not applicable	not applicable	not applicable	not applicable	not applicable	not applicable	not applicable	not applicable	not applicable
467.993	0.049	7	30_H15_combined_small.mp4	fixationPostAnswer	not applicable	not applicable	not applicable	not applicable	not applicable	not applicable	not applicable	not applicable	not applicable	not applicable	not applicable	not applicable	not applicable	not applicable
468.042	5.951	7	30_H15_combined_small.mp4	displayCuriosity	5	471.957426150999	not applicable	not applicable	not applicable	not applicable	not applicable	not applicable	not applicable	not applicable	not applicable	not applicable	not applicable	not applicable
473.993	4.001	7	30_H15_combined_small.mp4	fixationPostCuriosity	not applicable	not applicable	not applicable	not applicable	not applicable	not applicable	not applicable	not applicable	not applicable	not applicable	not applicable	not applicable	not applicable	not applicable
479.993	6.032	8	27_S31_combined_small.mp4	displayMockVid	not applicable	not applicable	not applicable	not applicable	not applicable	not applicable	not applicable	not applicable	not applicable	not applicable	not applicable	not applicable	not applicable	not applicable
486.025	21.016	8	27_S31_combined_small.mp4	displayVid	not applicable	not applicable	No recall	forgotten	forgotten	The magician folds the envelope multiple times until he reveals that it is a pair of chop sticks.	1	forgotten	forgotten	forgotten	forgotten	forgotten	forgotten	forgotten
507.989	6.004	8	27_S31_combined_small.mp4	fixationPostVid	not applicable	not applicable	not applicable	not applicable	not applicable	not applicable	not applicable	not applicable	not applicable	not applicable	not applicable	not applicable	not applicable	not applicable
513.992	6.001	8	27_S31_combined_small.mp4	displayAnswer	21 to 30	515.593806787016	not applicable	not applicable	not applicable	not applicable	not applicable	not applicable	not applicable	not applicable	not applicable	not applicable	not applicable	not applicable
519.993	0.049	8	27_S31_combined_small.mp4	fixationPostAnswer	not applicable	not applicable	not applicable	not applicable	not applicable	not applicable	not applicable	not applicable	not applicable	not applicable	not applicable	not applicable	not applicable	not applicable
520.042	5.95	8	27_S31_combined_small.mp4	displayCuriosity	6	522.785473635013	not applicable	not applicable	not applicable	not applicable	not applicable	not applicable	not applicable	not applicable	not applicable	not applicable	not applicable	not applicable
525.993	4	8	27_S31_combined_small.mp4	fixationPostCuriosity	not applicable	not applicable	not applicable	not applicable	not applicable	not applicable	not applicable	not applicable	not applicable	not applicable	not applicable	not applicable	not applicable	not applicable
531.988	6.006	9	24_Trick28_combined_small.mp4	displayMockVid	not applicable	not applicable	not applicable	not applicable	not applicable	not applicable	not applicable	not applicable	not applicable	not applicable	not applicable	not applicable	not applicable	not applicable
537.994	40.5	9	24_Trick28_combined_small.mp4	displayVid	not applicable	not applicable	The rings were interlinked and then separated	remembered	remembered	The magician links and unlinks several silver rings while they keep their shape.	5	remembered	remembered	remembered	remembered	remembered	remembered	remembered
579.99	4.001	9	24_Trick28_combined_small.mp4	fixationPostVid	not applicable	not applicable	not applicable	not applicable	not applicable	not applicable	not applicable	not applicable	not applicable	not applicable	not applicable	not applicable	not applicable	not applicable
583.991	6.001	9	24_Trick28_combined_small.mp4	displayAnswer	31 or more	585.576531236002	not applicable	not applicable	not applicable	not applicable	not applicable	not applicable	not applicable	not applicable	not applicable	not applicable	not applicable	not applicable
589.992	0.05	9	24_Trick28_combined_small.mp4	fixationPostAnswer	not applicable	not applicable	not applicable	not applicable	not applicable	not applicable	not applicable	not applicable	not applicable	not applicable	not applicable	not applicable	not applicable	not applicable
590.042	5.95	9	24_Trick28_combined_small.mp4	displayCuriosity	5	592.365868390014	not applicable	not applicable	not applicable	not applicable	not applicable	not applicable	not applicable	not applicable	not applicable	not applicable	not applicable	not applicable
595.992	3.995	9	24_Trick28_combined_small.mp4	fixationPostCuriosity	not applicable	not applicable	not applicable	not applicable	not applicable	not applicable	not applicable	not applicable	not applicable	not applicable	not applicable	not applicable	not applicable	not applicable
601.988	6.039	10	32_K16_short_combined_small.mp4	displayMockVid	not applicable	not applicable	not applicable	not applicable	not applicable	not applicable	not applicable	not applicable	not applicable	not applicable	not applicable	not applicable	not applicable	not applicable
608.027	31.408	10	32_K16_short_combined_small.mp4	displayVid	not applicable	not applicable	The cards changed colour - the back changed to blue.	forgotten	forgotten	The volunteer selects and signs a card that is placed in the middle of the deck, but then appears on the top of it.	5	remembered	remembered	remembered	remembered	remembered	remembered	remembered
639.992	5.996	10	32_K16_short_combined_small.mp4	fixationPostVid	not applicable	not applicable	not applicable	not applicable	not applicable	not applicable	not applicable	not applicable	not applicable	not applicable	not applicable	not applicable	not applicable	not applicable
645.987	6.004	10	32_K16_short_combined_small.mp4	displayAnswer	0 to 10	647.250037260004	not applicable	not applicable	not applicable	not applicable	not applicable	not applicable	not applicable	not applicable	not applicable	not applicable	not applicable	not applicable
651.991	0.05	10	32_K16_short_combined_small.mp4	fixationPostAnswer	not applicable	not applicable	not applicable	not applicable	not applicable	not applicable	not applicable	not applicable	not applicable	not applicable	not applicable	not applicable	not applicable	not applicable
652.041	5.95	10	32_K16_short_combined_small.mp4	displayCuriosity	7	654.186886390002	not applicable	not applicable	not applicable	not applicable	not applicable	not applicable	not applicable	not applicable	not applicable	not applicable	not applicable	not applicable
657.991	6	10	32_K16_short_combined_small.mp4	fixationPostCuriosity	not applicable	not applicable	not applicable	not applicable	not applicable	not applicable	not applicable	not applicable	not applicable	not applicable	not applicable	not applicable	not applicable	not applicable
665.991	6.001	11	07_K2_combined_small.mp4	displayMockVid	not applicable	not applicable	not applicable	not applicable	not applicable	not applicable	not applicable	not applicable	not applicable	not applicable	not applicable	not applicable	not applicable	not applicable
671.992	27.253	11	07_K2_combined_small.mp4	displayVid	not applicable	not applicable	Real candy fell out of the book and the candy pictures disappeared	remembered	remembered	The sweets shown on the pages disappear.	4	forgotten	forgotten	forgotten	remembered	remembered	remembered	remembered
699.991	4	11	07_K2_combined_small.mp4	fixationPostVid	not applicable	not applicable	not applicable	not applicable	not applicable	not applicable	not applicable	not applicable	not applicable	not applicable	not applicable	not applicable	not applicable	not applicable
703.991	6.001	11	07_K2_combined_small.mp4	displayAnswer	31 or more	704.928133951995	not applicable	not applicable	not applicable	not applicable	not applicable	not applicable	not applicable	not applicable	not applicable	not applicable	not applicable	not applicable
709.991	0.05	11	07_K2_combined_small.mp4	fixationPostAnswer	not applicable	not applicable	not applicable	not applicable	not applicable	not applicable	not applicable	not applicable	not applicable	not applicable	not applicable	not applicable	not applicable	not applicable
710.041	5.947	11	07_K2_combined_small.mp4	displayCuriosity	4	714.120308745012	not applicable	not applicable	not applicable	not applicable	not applicable	not applicable	not applicable	not applicable	not applicable	not applicable	not applicable	not applicable
715.988	10.002	11	07_K2_combined_small.mp4	fixationPostCuriosity	not applicable	not applicable	not applicable	not applicable	not applicable	not applicable	not applicable	not applicable	not applicable	not applicable	not applicable	not applicable	not applicable	not applicable
727.99	6.031	12	20_Trick20_short_combined_small.mp4	displayMockVid	not applicable	not applicable	not applicable	not applicable	not applicable	not applicable	not applicable	not applicable	not applicable	not applicable	not applicable	not applicable	not applicable	not applicable
734.02	26.138	12	20_Trick20_short_combined_small.mp4	displayVid	not applicable	not applicable	The magician tied the bolt onto rope in a knot and then managed to get the bolt off	remembered	remembered	The magician shows the volunteer metal nut and rope. Although he secures the nut with the rope, it repeatdely escapes.	5	remembered	remembered	remembered	remembered	remembered	remembered	remembered
761.988	4.002	12	20_Trick20_short_combined_small.mp4	fixationPostVid	not applicable	not applicable	not applicable	not applicable	not applicable	not applicable	not applicable	not applicable	not applicable	not applicable	not applicable	not applicable	not applicable	not applicable
765.99	5.999	12	20_Trick20_short_combined_small.mp4	displayAnswer	21 to 30	766.987178484007	not applicable	not applicable	not applicable	not applicable	not applicable	not applicable	not applicable	not applicable	not applicable	not applicable	not applicable	not applicable
771.99	0.049	12	20_Trick20_short_combined_small.mp4	fixationPostAnswer	not applicable	not applicable	not applicable	not applicable	not applicable	not applicable	not applicable	not applicable	not applicable	not applicable	not applicable	not applicable	not applicable	not applicable
772.039	5.95	12	20_Trick20_short_combined_small.mp4	displayCuriosity	5	774.968890770018	not applicable	not applicable	not applicable	not applicable	not applicable	not applicable	not applicable	not applicable	not applicable	not applicable	not applicable	not applicable
777.989	3.997	12	20_Trick20_short_combined_small.mp4	fixationPostCuriosity	not applicable	not applicable	not applicable	not applicable	not applicable	not applicable	not applicable	not applicable	not applicable	not applicable	not applicable	not applicable	not applicable	not applicable
