onset	duration	trial	stim_file	event	response	response_timestamp	response_recall	trial_type_cuedRecallStrict	trial_type_cuedRecallLenient	response_recognition	response_confidence	trial_type_allConf	trial_type_highConf	trial_type_aboveAvgConf	trial_type_rememberedStrictAboveAvg	trial_type_rememberedLenientAboveAvg	trial_type_rememberedStrictHigh	trial_type_rememberedLenientHigh
2.002	6.006	13	27_S31_combined_small.mp4	displayMockVid	not applicable	not applicable	not applicable	not applicable	not applicable	not applicable	not applicable	not applicable	not applicable	not applicable	not applicable	not applicable	not applicable	not applicable
8.008	21.05	13	27_S31_combined_small.mp4	displayVid	not applicable	not applicable	Unsure- I think the magician pulled a 3D object out of the envelope.	forgotten	forgotten	The magician places chopsticks into an envelope, but is still able to crush the envelope and its contents into a paper ball.	4	remembered	remembered	forgotten	forgotten	forgotten	remembered	remembered
30.006	6.003	13	27_S31_combined_small.mp4	fixationPostVid	not applicable	not applicable	not applicable	not applicable	not applicable	not applicable	not applicable	not applicable	not applicable	not applicable	not applicable	not applicable	not applicable	not applicable
36.01	5.999	13	27_S31_combined_small.mp4	displayAnswer	11 to 20	36.717093173007	not applicable	not applicable	not applicable	not applicable	not applicable	not applicable	not applicable	not applicable	not applicable	not applicable	not applicable	not applicable
42.008	0.049	13	27_S31_combined_small.mp4	fixationPostAnswer	not applicable	not applicable	not applicable	not applicable	not applicable	not applicable	not applicable	not applicable	not applicable	not applicable	not applicable	not applicable	not applicable	not applicable
42.057	5.952	13	27_S31_combined_small.mp4	displayCuriosity	4	45.4862009450444	not applicable	not applicable	not applicable	not applicable	not applicable	not applicable	not applicable	not applicable	not applicable	not applicable	not applicable	not applicable
48.01	3.996	13	27_S31_combined_small.mp4	fixationPostCuriosity	not applicable	not applicable	not applicable	not applicable	not applicable	not applicable	not applicable	not applicable	not applicable	not applicable	not applicable	not applicable	not applicable	not applicable
54.007	6.002	14	10_S27_combined_small.mp4	displayMockVid	not applicable	not applicable	not applicable	not applicable	not applicable	not applicable	not applicable	not applicable	not applicable	not applicable	not applicable	not applicable	not applicable	not applicable
60.01	31.612	14	10_S27_combined_small.mp4	displayVid	not applicable	not applicable	The magician poured water into the left cup and then poured the water from the left cup into the right cup. Then the magician tipped the right cup upside down but no water came out.	remembered	remembered	The magician pours water into a cup from the bottle and then pours the water into another cup but when he tips it upside down, no water spills out.	6	remembered	remembered	remembered	remembered	remembered	remembered	remembered
92.001	4.004	14	10_S27_combined_small.mp4	fixationPostVid	not applicable	not applicable	not applicable	not applicable	not applicable	not applicable	not applicable	not applicable	not applicable	not applicable	not applicable	not applicable	not applicable	not applicable
96.005	6.002	14	10_S27_combined_small.mp4	displayAnswer	21 to 30	96.8524473610451	not applicable	not applicable	not applicable	not applicable	not applicable	not applicable	not applicable	not applicable	not applicable	not applicable	not applicable	not applicable
102.008	0.049	14	10_S27_combined_small.mp4	fixationPostAnswer	not applicable	not applicable	not applicable	not applicable	not applicable	not applicable	not applicable	not applicable	not applicable	not applicable	not applicable	not applicable	not applicable	not applicable
102.057	5.951	14	10_S27_combined_small.mp4	displayCuriosity	2	104.544683028013	not applicable	not applicable	not applicable	not applicable	not applicable	not applicable	not applicable	not applicable	not applicable	not applicable	not applicable	not applicable
108.007	4	14	10_S27_combined_small.mp4	fixationPostCuriosity	not applicable	not applicable	not applicable	not applicable	not applicable	not applicable	not applicable	not applicable	not applicable	not applicable	not applicable	not applicable	not applicable	not applicable
114.007	6.033	15	14_K19_long_combined_small.mp4	displayMockVid	not applicable	not applicable	not applicable	not applicable	not applicable	not applicable	not applicable	not applicable	not applicable	not applicable	not applicable	not applicable	not applicable	not applicable
120.04	31.821	15	14_K19_long_combined_small.mp4	displayVid	not applicable	not applicable	The magician hid the red objects under the cup and made them disappear and reappear both under the cup and in their hand.	remembered	remembered	The red balls are placed under the mug and merge to become a form a larger ball.	4	forgotten	forgotten	forgotten	remembered	remembered	remembered	remembered
152.008	9.999	15	14_K19_long_combined_small.mp4	fixationPostVid	not applicable	not applicable	not applicable	not applicable	not applicable	not applicable	not applicable	not applicable	not applicable	not applicable	not applicable	not applicable	not applicable	not applicable
162.007	5.999	15	14_K19_long_combined_small.mp4	displayAnswer	0 to 10	163.424858059036	not applicable	not applicable	not applicable	not applicable	not applicable	not applicable	not applicable	not applicable	not applicable	not applicable	not applicable	not applicable
168.005	0.05	15	14_K19_long_combined_small.mp4	fixationPostAnswer	not applicable	not applicable	not applicable	not applicable	not applicable	not applicable	not applicable	not applicable	not applicable	not applicable	not applicable	not applicable	not applicable	not applicable
168.055	5.951	15	14_K19_long_combined_small.mp4	displayCuriosity	6	171.680150405038	not applicable	not applicable	not applicable	not applicable	not applicable	not applicable	not applicable	not applicable	not applicable	not applicable	not applicable	not applicable
174.006	4	15	14_K19_long_combined_small.mp4	fixationPostCuriosity	not applicable	not applicable	not applicable	not applicable	not applicable	not applicable	not applicable	not applicable	not applicable	not applicable	not applicable	not applicable	not applicable	not applicable
180.006	6.031	16	13_Trick6_short_combined_small.mp4	displayMockVid	not applicable	not applicable	not applicable	not applicable	not applicable	not applicable	not applicable	not applicable	not applicable	not applicable	not applicable	not applicable	not applicable	not applicable
186.037	37.655	16	13_Trick6_short_combined_small.mp4	displayVid	not applicable	not applicable	Unsure- I think the magician made the bigger red ball come out from underneath the tube.	remembered	remembered	The magician puts a ball under the cup, which then turns into a larger ball and then becomes an egg.	5	remembered	remembered	remembered	remembered	remembered	remembered	remembered
224.007	3.999	16	13_Trick6_short_combined_small.mp4	fixationPostVid	not applicable	not applicable	not applicable	not applicable	not applicable	not applicable	not applicable	not applicable	not applicable	not applicable	not applicable	not applicable	not applicable	not applicable
228.006	5.997	16	13_Trick6_short_combined_small.mp4	displayAnswer	0 to 10	228.759495130042	not applicable	not applicable	not applicable	not applicable	not applicable	not applicable	not applicable	not applicable	not applicable	not applicable	not applicable	not applicable
234.003	0.049	16	13_Trick6_short_combined_small.mp4	fixationPostAnswer	not applicable	not applicable	not applicable	not applicable	not applicable	not applicable	not applicable	not applicable	not applicable	not applicable	not applicable	not applicable	not applicable	not applicable
234.052	5.953	16	13_Trick6_short_combined_small.mp4	displayCuriosity	6	238.101954473008	not applicable	not applicable	not applicable	not applicable	not applicable	not applicable	not applicable	not applicable	not applicable	not applicable	not applicable	not applicable
240.005	4	16	13_Trick6_short_combined_small.mp4	fixationPostCuriosity	not applicable	not applicable	not applicable	not applicable	not applicable	not applicable	not applicable	not applicable	not applicable	not applicable	not applicable	not applicable	not applicable	not applicable
246.006	6.029	17	11_K21_long_combined_small.mp4	displayMockVid	not applicable	not applicable	not applicable	not applicable	not applicable	not applicable	not applicable	not applicable	not applicable	not applicable	not applicable	not applicable	not applicable	not applicable
252.035	43.784	17	11_K21_long_combined_small.mp4	displayVid	not applicable	not applicable	No recall.	forgotten	forgotten	The magician places a card between two other cards and makes it disappear.	4	forgotten	forgotten	forgotten	forgotten	forgotten	forgotten	forgotten
296.006	3.998	17	11_K21_long_combined_small.mp4	fixationPostVid	not applicable	not applicable	not applicable	not applicable	not applicable	not applicable	not applicable	not applicable	not applicable	not applicable	not applicable	not applicable	not applicable	not applicable
300.005	6	17	11_K21_long_combined_small.mp4	displayAnswer	21 to 30	301.064878397039	not applicable	not applicable	not applicable	not applicable	not applicable	not applicable	not applicable	not applicable	not applicable	not applicable	not applicable	not applicable
306.005	0.049	17	11_K21_long_combined_small.mp4	fixationPostAnswer	not applicable	not applicable	not applicable	not applicable	not applicable	not applicable	not applicable	not applicable	not applicable	not applicable	not applicable	not applicable	not applicable	not applicable
306.054	5.95	17	11_K21_long_combined_small.mp4	displayCuriosity	3	309.747215181997	not applicable	not applicable	not applicable	not applicable	not applicable	not applicable	not applicable	not applicable	not applicable	not applicable	not applicable	not applicable
312.004	4.001	17	11_K21_long_combined_small.mp4	fixationPostCuriosity	not applicable	not applicable	not applicable	not applicable	not applicable	not applicable	not applicable	not applicable	not applicable	not applicable	not applicable	not applicable	not applicable	not applicable
318.005	6.035	18	30_H15_combined_small.mp4	displayMockVid	not applicable	not applicable	not applicable	not applicable	not applicable	not applicable	not applicable	not applicable	not applicable	not applicable	not applicable	not applicable	not applicable	not applicable
324.039	31.903	18	30_H15_combined_small.mp4	displayVid	not applicable	not applicable	The magician pushed the cocktail stick through the pack of cards.	forgotten	forgotten	The magician pierces the deck of cards with a toothpick, but afterwards there is no hole.	5	forgotten	forgotten	forgotten	forgotten	forgotten	forgotten	forgotten
356.005	3.999	18	30_H15_combined_small.mp4	fixationPostVid	not applicable	not applicable	not applicable	not applicable	not applicable	not applicable	not applicable	not applicable	not applicable	not applicable	not applicable	not applicable	not applicable	not applicable
360.004	5.999	18	30_H15_combined_small.mp4	displayAnswer	11 to 20	360.758210960019	not applicable	not applicable	not applicable	not applicable	not applicable	not applicable	not applicable	not applicable	not applicable	not applicable	not applicable	not applicable
366.003	0.05	18	30_H15_combined_small.mp4	fixationPostAnswer	not applicable	not applicable	not applicable	not applicable	not applicable	not applicable	not applicable	not applicable	not applicable	not applicable	not applicable	not applicable	not applicable	not applicable
366.053	5.95	18	30_H15_combined_small.mp4	displayCuriosity	3	370.744154288026	not applicable	not applicable	not applicable	not applicable	not applicable	not applicable	not applicable	not applicable	not applicable	not applicable	not applicable	not applicable
372.003	4.001	18	30_H15_combined_small.mp4	fixationPostCuriosity	not applicable	not applicable	not applicable	not applicable	not applicable	not applicable	not applicable	not applicable	not applicable	not applicable	not applicable	not applicable	not applicable	not applicable
378.004	6.035	19	31_K3_combined_small.mp4	displayMockVid	not applicable	not applicable	not applicable	not applicable	not applicable	not applicable	not applicable	not applicable	not applicable	not applicable	not applicable	not applicable	not applicable	not applicable
384.039	25.894	19	31_K3_combined_small.mp4	displayVid	not applicable	not applicable	Unsure - I think the magician changed the colour of the leaf.	forgotten	forgotten	The magician changes the colour of the leaf several times.	4	forgotten	forgotten	forgotten	forgotten	forgotten	forgotten	forgotten
410.006	7.996	19	31_K3_combined_small.mp4	fixationPostVid	not applicable	not applicable	not applicable	not applicable	not applicable	not applicable	not applicable	not applicable	not applicable	not applicable	not applicable	not applicable	not applicable	not applicable
418.002	6.001	19	31_K3_combined_small.mp4	displayAnswer	21 to 30	418.707555836008	not applicable	not applicable	not applicable	not applicable	not applicable	not applicable	not applicable	not applicable	not applicable	not applicable	not applicable	not applicable
424.003	0.049	19	31_K3_combined_small.mp4	fixationPostAnswer	not applicable	not applicable	not applicable	not applicable	not applicable	not applicable	not applicable	not applicable	not applicable	not applicable	not applicable	not applicable	not applicable	not applicable
424.052	5.95	19	31_K3_combined_small.mp4	displayCuriosity	4	427.390600619023	not applicable	not applicable	not applicable	not applicable	not applicable	not applicable	not applicable	not applicable	not applicable	not applicable	not applicable	not applicable
430.002	4	19	31_K3_combined_small.mp4	fixationPostCuriosity	not applicable	not applicable	not applicable	not applicable	not applicable	not applicable	not applicable	not applicable	not applicable	not applicable	not applicable	not applicable	not applicable	not applicable
435.998	6.041	20	05_K4_combined_small.mp4	displayMockVid	not applicable	not applicable	not applicable	not applicable	not applicable	not applicable	not applicable	not applicable	not applicable	not applicable	not applicable	not applicable	not applicable	not applicable
442.038	31.168	20	05_K4_combined_small.mp4	displayVid	not applicable	not applicable	The magician threw the rubix cube into the air when it was mixed up and caught it with all the colours in the right places on each side.	remembered	remembered	The magician solves the rubix cube by spinning it in the air.	6	remembered	remembered	remembered	remembered	remembered	remembered	remembered
474.005	4	20	05_K4_combined_small.mp4	fixationPostVid	not applicable	not applicable	not applicable	not applicable	not applicable	not applicable	not applicable	not applicable	not applicable	not applicable	not applicable	not applicable	not applicable	not applicable
478.005	5.997	20	05_K4_combined_small.mp4	displayAnswer	0 to 10	479.05326302204	not applicable	not applicable	not applicable	not applicable	not applicable	not applicable	not applicable	not applicable	not applicable	not applicable	not applicable	not applicable
484.002	0.047	20	05_K4_combined_small.mp4	fixationPostAnswer	not applicable	not applicable	not applicable	not applicable	not applicable	not applicable	not applicable	not applicable	not applicable	not applicable	not applicable	not applicable	not applicable	not applicable
484.048	5.954	20	05_K4_combined_small.mp4	displayCuriosity	6	487.671042243019	not applicable	not applicable	not applicable	not applicable	not applicable	not applicable	not applicable	not applicable	not applicable	not applicable	not applicable	not applicable
490.002	3.999	20	05_K4_combined_small.mp4	fixationPostCuriosity	not applicable	not applicable	not applicable	not applicable	not applicable	not applicable	not applicable	not applicable	not applicable	not applicable	not applicable	not applicable	not applicable	not applicable
496.002	6.035	21	23_K10_combined_small.mp4	displayMockVid	not applicable	not applicable	not applicable	not applicable	not applicable	not applicable	not applicable	not applicable	not applicable	not applicable	not applicable	not applicable	not applicable	not applicable
502.037	23.413	21	23_K10_combined_small.mp4	displayVid	not applicable	not applicable	The magician tapped the two safety pins together and attached them without undoing the pin.	remembered	remembered	The safety pins magically interlock without breaking the seal.	5	remembered	remembered	remembered	remembered	remembered	remembered	remembered
525.997	4.004	21	23_K10_combined_small.mp4	fixationPostVid	not applicable	not applicable	not applicable	not applicable	not applicable	not applicable	not applicable	not applicable	not applicable	not applicable	not applicable	not applicable	not applicable	not applicable
530	6.001	21	23_K10_combined_small.mp4	displayAnswer	11 to 20	531.168888517015	not applicable	not applicable	not applicable	not applicable	not applicable	not applicable	not applicable	not applicable	not applicable	not applicable	not applicable	not applicable
536.001	0.049	21	23_K10_combined_small.mp4	fixationPostAnswer	not applicable	not applicable	not applicable	not applicable	not applicable	not applicable	not applicable	not applicable	not applicable	not applicable	not applicable	not applicable	not applicable	not applicable
536.051	5.951	21	23_K10_combined_small.mp4	displayCuriosity	3	537.737582224014	not applicable	not applicable	not applicable	not applicable	not applicable	not applicable	not applicable	not applicable	not applicable	not applicable	not applicable	not applicable
542.002	7.997	21	23_K10_combined_small.mp4	fixationPostCuriosity	not applicable	not applicable	not applicable	not applicable	not applicable	not applicable	not applicable	not applicable	not applicable	not applicable	not applicable	not applicable	not applicable	not applicable
551.999	6.038	22	33_S21_combined_small.mp4	displayMockVid	not applicable	not applicable	not applicable	not applicable	not applicable	not applicable	not applicable	not applicable	not applicable	not applicable	not applicable	not applicable	not applicable	not applicable
558.037	21.819	22	33_S21_combined_small.mp4	displayVid	not applicable	not applicable	The magician bent the spoon's handle without touching it.	remembered	remembered	The magician detaches the head of a spoon by moving the handle up and down.	5	remembered	remembered	remembered	remembered	remembered	remembered	remembered
580.003	3.999	22	33_S21_combined_small.mp4	fixationPostVid	not applicable	not applicable	not applicable	not applicable	not applicable	not applicable	not applicable	not applicable	not applicable	not applicable	not applicable	not applicable	not applicable	not applicable
584.002	5.999	22	33_S21_combined_small.mp4	displayAnswer	0 to 10	584.883464290004	not applicable	not applicable	not applicable	not applicable	not applicable	not applicable	not applicable	not applicable	not applicable	not applicable	not applicable	not applicable
590.001	0.049	22	33_S21_combined_small.mp4	fixationPostAnswer	not applicable	not applicable	not applicable	not applicable	not applicable	not applicable	not applicable	not applicable	not applicable	not applicable	not applicable	not applicable	not applicable	not applicable
590.05	5.947	22	33_S21_combined_small.mp4	displayCuriosity	5	592.993326820026	not applicable	not applicable	not applicable	not applicable	not applicable	not applicable	not applicable	not applicable	not applicable	not applicable	not applicable	not applicable
595.997	4.003	22	33_S21_combined_small.mp4	fixationPostCuriosity	not applicable	not applicable	not applicable	not applicable	not applicable	not applicable	not applicable	not applicable	not applicable	not applicable	not applicable	not applicable	not applicable	not applicable
602	6.035	23	09_S11_combined_small.mp4	displayMockVid	not applicable	not applicable	not applicable	not applicable	not applicable	not applicable	not applicable	not applicable	not applicable	not applicable	not applicable	not applicable	not applicable	not applicable
608.035	24.406	23	09_S11_combined_small.mp4	displayVid	not applicable	not applicable	The magician pushed the white roll of paper/stick (?) through the coin and then pulled it out again.	remembered	remembered	The magician pushes a cigarette through a coin and then reveals that there is no hole.	6	remembered	remembered	remembered	remembered	remembered	remembered	remembered
634.003	3.997	23	09_S11_combined_small.mp4	fixationPostVid	not applicable	not applicable	not applicable	not applicable	not applicable	not applicable	not applicable	not applicable	not applicable	not applicable	not applicable	not applicable	not applicable	not applicable
638	5.998	23	09_S11_combined_small.mp4	displayAnswer	0 to 10	638.674308227026	not applicable	not applicable	not applicable	not applicable	not applicable	not applicable	not applicable	not applicable	not applicable	not applicable	not applicable	not applicable
643.998	0.05	23	09_S11_combined_small.mp4	fixationPostAnswer	not applicable	not applicable	not applicable	not applicable	not applicable	not applicable	not applicable	not applicable	not applicable	not applicable	not applicable	not applicable	not applicable	not applicable
644.047	5.953	23	09_S11_combined_small.mp4	displayCuriosity	6	648.774985537049	not applicable	not applicable	not applicable	not applicable	not applicable	not applicable	not applicable	not applicable	not applicable	not applicable	not applicable	not applicable
650	4	23	09_S11_combined_small.mp4	fixationPostCuriosity	not applicable	not applicable	not applicable	not applicable	not applicable	not applicable	not applicable	not applicable	not applicable	not applicable	not applicable	not applicable	not applicable	not applicable
655.999	6.031	24	24_Trick28_combined_small.mp4	displayMockVid	not applicable	not applicable	not applicable	not applicable	not applicable	not applicable	not applicable	not applicable	not applicable	not applicable	not applicable	not applicable	not applicable	not applicable
662.03	40.455	24	24_Trick28_combined_small.mp4	displayVid	not applicable	not applicable	The magician joined all the hoops together by tapping them on each other. They formed a long chain together.	remembered	remembered	The magician links and unlinks several silver rings while they keep their shape.	6	remembered	remembered	remembered	remembered	remembered	remembered	remembered
704.002	9.996	24	24_Trick28_combined_small.mp4	fixationPostVid	not applicable	not applicable	not applicable	not applicable	not applicable	not applicable	not applicable	not applicable	not applicable	not applicable	not applicable	not applicable	not applicable	not applicable
713.998	6.001	24	24_Trick28_combined_small.mp4	displayAnswer	21 to 30	717.078975106007	not applicable	not applicable	not applicable	not applicable	not applicable	not applicable	not applicable	not applicable	not applicable	not applicable	not applicable	not applicable
719.999	0.049	24	24_Trick28_combined_small.mp4	fixationPostAnswer	not applicable	not applicable	not applicable	not applicable	not applicable	not applicable	not applicable	not applicable	not applicable	not applicable	not applicable	not applicable	not applicable	not applicable
720.048	5.951	24	24_Trick28_combined_small.mp4	displayCuriosity	2	723.573445295042	not applicable	not applicable	not applicable	not applicable	not applicable	not applicable	not applicable	not applicable	not applicable	not applicable	not applicable	not applicable
725.999	4	24	24_Trick28_combined_small.mp4	fixationPostCuriosity	not applicable	not applicable	not applicable	not applicable	not applicable	not applicable	not applicable	not applicable	not applicable	not applicable	not applicable	not applicable	not applicable	not applicable
