onset	duration	trial	stim_file	event	response	response_timestamp	response_recall	trial_type_cuedRecallStrict	trial_type_cuedRecallLenient	response_recognition	response_confidence	trial_type_allConf	trial_type_highConf	trial_type_aboveAvgConf	trial_type_rememberedStrictAboveAvg	trial_type_rememberedLenientAboveAvg	trial_type_rememberedStrictHigh	trial_type_rememberedLenientHigh
2.001	6.006	1	22_K18_combined_small.mp4	displayMockVid	not applicable	not applicable	not applicable	not applicable	not applicable	not applicable	not applicable	not applicable	not applicable	not applicable	not applicable	not applicable	not applicable	not applicable
8.008	22.815	1	22_K18_combined_small.mp4	displayVid	not applicable	not applicable	Unsure - I think the magician folded the sheet of paper up and made a pack of cards appear.	remembered	remembered	The magician folds the sheet of paper smaller and smaller until it transforms into a pack of cards.	2	forgotten	forgotten	forgotten	remembered	remembered	remembered	remembered
32.008	3.999	1	22_K18_combined_small.mp4	fixationPostVid	not applicable	not applicable	not applicable	not applicable	not applicable	not applicable	not applicable	not applicable	not applicable	not applicable	not applicable	not applicable	not applicable	not applicable
36.007	6	1	22_K18_combined_small.mp4	displayAnswer	21 to 30	38.665352564014	not applicable	not applicable	not applicable	not applicable	not applicable	not applicable	not applicable	not applicable	not applicable	not applicable	not applicable	not applicable
42.007	0.065	1	22_K18_combined_small.mp4	fixationPostAnswer	not applicable	not applicable	not applicable	not applicable	not applicable	not applicable	not applicable	not applicable	not applicable	not applicable	not applicable	not applicable	not applicable	not applicable
42.073	5.962	1	22_K18_combined_small.mp4	displayCuriosity	2	47.9983604670269	not applicable	not applicable	not applicable	not applicable	not applicable	not applicable	not applicable	not applicable	not applicable	not applicable	not applicable	not applicable
48.034	4.004	1	22_K18_combined_small.mp4	fixationPostCuriosity	not applicable	not applicable	not applicable	not applicable	not applicable	not applicable	not applicable	not applicable	not applicable	not applicable	not applicable	not applicable	not applicable	not applicable
54.006	6.007	2	03_H16_combined_small.mp4	displayMockVid	not applicable	not applicable	not applicable	not applicable	not applicable	not applicable	not applicable	not applicable	not applicable	not applicable	not applicable	not applicable	not applicable	not applicable
60.013	33.646	2	03_H16_combined_small.mp4	displayVid	not applicable	not applicable	The magician took the empty can of coke and then made it into a full can which was opened and poured into the glass.	remembered	remembered	The magician is able to remove the dents from the can without touching it.	5	forgotten	forgotten	forgotten	remembered	remembered	remembered	remembered
94.003	4.004	2	03_H16_combined_small.mp4	fixationPostVid	not applicable	not applicable	not applicable	not applicable	not applicable	not applicable	not applicable	not applicable	not applicable	not applicable	not applicable	not applicable	not applicable	not applicable
98.007	5.999	2	03_H16_combined_small.mp4	displayAnswer	11 to 20	99.0409404989914	not applicable	not applicable	not applicable	not applicable	not applicable	not applicable	not applicable	not applicable	not applicable	not applicable	not applicable	not applicable
104.006	0.05	2	03_H16_combined_small.mp4	fixationPostAnswer	not applicable	not applicable	not applicable	not applicable	not applicable	not applicable	not applicable	not applicable	not applicable	not applicable	not applicable	not applicable	not applicable	not applicable
104.056	5.95	2	03_H16_combined_small.mp4	displayCuriosity	4	106.754803195014	not applicable	not applicable	not applicable	not applicable	not applicable	not applicable	not applicable	not applicable	not applicable	not applicable	not applicable	not applicable
110.006	7.996	2	03_H16_combined_small.mp4	fixationPostCuriosity	not applicable	not applicable	not applicable	not applicable	not applicable	not applicable	not applicable	not applicable	not applicable	not applicable	not applicable	not applicable	not applicable	not applicable
120.003	6.039	3	04_S9_combined_small.mp4	displayMockVid	not applicable	not applicable	not applicable	not applicable	not applicable	not applicable	not applicable	not applicable	not applicable	not applicable	not applicable	not applicable	not applicable	not applicable
126.041	32.452	3	04_S9_combined_small.mp4	displayVid	not applicable	not applicable	The magician made the pack blank on the numbers side and then he made the pack change colour from blue to red.	remembered	remembered	The cards magically change their appearance.	4	remembered	remembered	forgotten	remembered	remembered	remembered	remembered
159.999	4.003	3	04_S9_combined_small.mp4	fixationPostVid	not applicable	not applicable	not applicable	not applicable	not applicable	not applicable	not applicable	not applicable	not applicable	not applicable	not applicable	not applicable	not applicable	not applicable
164.002	6.003	3	04_S9_combined_small.mp4	displayAnswer	0 to 10	166.088039234048	not applicable	not applicable	not applicable	not applicable	not applicable	not applicable	not applicable	not applicable	not applicable	not applicable	not applicable	not applicable
170.005	0.05	3	04_S9_combined_small.mp4	fixationPostAnswer	not applicable	not applicable	not applicable	not applicable	not applicable	not applicable	not applicable	not applicable	not applicable	not applicable	not applicable	not applicable	not applicable	not applicable
170.055	5.95	3	04_S9_combined_small.mp4	displayCuriosity	5	172.349125498033	not applicable	not applicable	not applicable	not applicable	not applicable	not applicable	not applicable	not applicable	not applicable	not applicable	not applicable	not applicable
176.006	9.995	3	04_S9_combined_small.mp4	fixationPostCuriosity	not applicable	not applicable	not applicable	not applicable	not applicable	not applicable	not applicable	not applicable	not applicable	not applicable	not applicable	not applicable	not applicable	not applicable
188.002	6.039	4	02_H10_combined_small.mp4	displayMockVid	not applicable	not applicable	not applicable	not applicable	not applicable	not applicable	not applicable	not applicable	not applicable	not applicable	not applicable	not applicable	not applicable	not applicable
194.041	30.851	4	02_H10_combined_small.mp4	displayVid	not applicable	not applicable	The magician cut up the card and then put the pieces back together to form an intact card.	remembered	remembered	The magician magically repairs split card.	5	remembered	remembered	remembered	remembered	remembered	remembered	remembered
225.998	4.001	4	02_H10_combined_small.mp4	fixationPostVid	not applicable	not applicable	not applicable	not applicable	not applicable	not applicable	not applicable	not applicable	not applicable	not applicable	not applicable	not applicable	not applicable	not applicable
230	6.003	4	02_H10_combined_small.mp4	displayAnswer	11 to 20	231.338194290001	not applicable	not applicable	not applicable	not applicable	not applicable	not applicable	not applicable	not applicable	not applicable	not applicable	not applicable	not applicable
236.003	0.05	4	02_H10_combined_small.mp4	fixationPostAnswer	not applicable	not applicable	not applicable	not applicable	not applicable	not applicable	not applicable	not applicable	not applicable	not applicable	not applicable	not applicable	not applicable	not applicable
236.053	5.951	4	02_H10_combined_small.mp4	displayCuriosity	3	239.960865738045	not applicable	not applicable	not applicable	not applicable	not applicable	not applicable	not applicable	not applicable	not applicable	not applicable	not applicable	not applicable
242.004	4	4	02_H10_combined_small.mp4	fixationPostCuriosity	not applicable	not applicable	not applicable	not applicable	not applicable	not applicable	not applicable	not applicable	not applicable	not applicable	not applicable	not applicable	not applicable	not applicable
247.995	6.027	5	36_Trick7_short_combined_small.mp4	displayMockVid	not applicable	not applicable	not applicable	not applicable	not applicable	not applicable	not applicable	not applicable	not applicable	not applicable	not applicable	not applicable	not applicable	not applicable
254.023	20.618	5	36_Trick7_short_combined_small.mp4	displayVid	not applicable	not applicable	The magician made the balls disappear and reappear in his hand and then the assistant's hands.	remembered	remembered	The magician gets the volunteer to hold a foam ball, which he then transforms into  two balls.	6	remembered	remembered	remembered	remembered	remembered	remembered	remembered
276.004	3.998	5	36_Trick7_short_combined_small.mp4	fixationPostVid	not applicable	not applicable	not applicable	not applicable	not applicable	not applicable	not applicable	not applicable	not applicable	not applicable	not applicable	not applicable	not applicable	not applicable
280.002	6.001	5	36_Trick7_short_combined_small.mp4	displayAnswer	11 to 20	281.043519661005	not applicable	not applicable	not applicable	not applicable	not applicable	not applicable	not applicable	not applicable	not applicable	not applicable	not applicable	not applicable
286.003	0.05	5	36_Trick7_short_combined_small.mp4	fixationPostAnswer	not applicable	not applicable	not applicable	not applicable	not applicable	not applicable	not applicable	not applicable	not applicable	not applicable	not applicable	not applicable	not applicable	not applicable
286.053	5.951	5	36_Trick7_short_combined_small.mp4	displayCuriosity	4	290.379588807991	not applicable	not applicable	not applicable	not applicable	not applicable	not applicable	not applicable	not applicable	not applicable	not applicable	not applicable	not applicable
292.004	4	5	36_Trick7_short_combined_small.mp4	fixationPostCuriosity	not applicable	not applicable	not applicable	not applicable	not applicable	not applicable	not applicable	not applicable	not applicable	not applicable	not applicable	not applicable	not applicable	not applicable
297.997	6.01	6	17_Trick37_combined_small.mp4	displayMockVid	not applicable	not applicable	not applicable	not applicable	not applicable	not applicable	not applicable	not applicable	not applicable	not applicable	not applicable	not applicable	not applicable	not applicable
304.007	46.329	6	17_Trick37_combined_small.mp4	displayVid	not applicable	not applicable	The magician placed the band on their hand in between their fingers and then made the band magically come off. Then they did the same thing but with a second band on top of the first to secure it.	remembered	remembered	The magician has two elastic bands and tangles them up. They then become untwisted.	4	forgotten	forgotten	forgotten	remembered	remembered	remembered	remembered
352.004	3.998	6	17_Trick37_combined_small.mp4	fixationPostVid	not applicable	not applicable	not applicable	not applicable	not applicable	not applicable	not applicable	not applicable	not applicable	not applicable	not applicable	not applicable	not applicable	not applicable
356.002	6	6	17_Trick37_combined_small.mp4	displayAnswer	21 to 30	357.247557702998	not applicable	not applicable	not applicable	not applicable	not applicable	not applicable	not applicable	not applicable	not applicable	not applicable	not applicable	not applicable
362.002	0.049	6	17_Trick37_combined_small.mp4	fixationPostAnswer	not applicable	not applicable	not applicable	not applicable	not applicable	not applicable	not applicable	not applicable	not applicable	not applicable	not applicable	not applicable	not applicable	not applicable
362.051	5.947	6	17_Trick37_combined_small.mp4	displayCuriosity	2	365.671853967011	not applicable	not applicable	not applicable	not applicable	not applicable	not applicable	not applicable	not applicable	not applicable	not applicable	not applicable	not applicable
367.998	4.003	6	17_Trick37_combined_small.mp4	fixationPostCuriosity	not applicable	not applicable	not applicable	not applicable	not applicable	not applicable	not applicable	not applicable	not applicable	not applicable	not applicable	not applicable	not applicable	not applicable
374.003	6.035	7	29_H36_combined_small.mp4	displayMockVid	not applicable	not applicable	not applicable	not applicable	not applicable	not applicable	not applicable	not applicable	not applicable	not applicable	not applicable	not applicable	not applicable	not applicable
380.038	36.417	7	29_H36_combined_small.mp4	displayVid	not applicable	not applicable	The magician put the nut on the bolt and spun it round. Then the other end came off.	remembered	remembered	The nut is placed on the middle of the bold by the volunteer and magically unscrews itself.	4	remembered	remembered	forgotten	remembered	remembered	remembered	remembered
418.005	3.996	7	29_H36_combined_small.mp4	fixationPostVid	not applicable	not applicable	not applicable	not applicable	not applicable	not applicable	not applicable	not applicable	not applicable	not applicable	not applicable	not applicable	not applicable	not applicable
422.002	6	7	29_H36_combined_small.mp4	displayAnswer	11 to 20	422.891920547001	not applicable	not applicable	not applicable	not applicable	not applicable	not applicable	not applicable	not applicable	not applicable	not applicable	not applicable	not applicable
428.002	0.049	7	29_H36_combined_small.mp4	fixationPostAnswer	not applicable	not applicable	not applicable	not applicable	not applicable	not applicable	not applicable	not applicable	not applicable	not applicable	not applicable	not applicable	not applicable	not applicable
428.051	5.945	7	29_H36_combined_small.mp4	displayCuriosity	5	430.306588398991	not applicable	not applicable	not applicable	not applicable	not applicable	not applicable	not applicable	not applicable	not applicable	not applicable	not applicable	not applicable
433.995	4.004	7	29_H36_combined_small.mp4	fixationPostCuriosity	not applicable	not applicable	not applicable	not applicable	not applicable	not applicable	not applicable	not applicable	not applicable	not applicable	not applicable	not applicable	not applicable	not applicable
440	6.038	8	35_Trick32_long_combined_small.mp4	displayMockVid	not applicable	not applicable	not applicable	not applicable	not applicable	not applicable	not applicable	not applicable	not applicable	not applicable	not applicable	not applicable	not applicable	not applicable
446.037	46.934	8	35_Trick32_long_combined_small.mp4	displayVid	not applicable	not applicable	No 	forgotten	forgotten	The magician makes a silver coin disappear and reappear several times before it is transformed into a large coin.	2	remembered	forgotten	forgotten	forgotten	forgotten	forgotten	forgotten
493.99	6.004	8	35_Trick32_long_combined_small.mp4	fixationPostVid	not applicable	not applicable	not applicable	not applicable	not applicable	not applicable	not applicable	not applicable	not applicable	not applicable	not applicable	not applicable	not applicable	not applicable
499.993	6.004	8	35_Trick32_long_combined_small.mp4	displayAnswer	0 to 10	501.013046579028	not applicable	not applicable	not applicable	not applicable	not applicable	not applicable	not applicable	not applicable	not applicable	not applicable	not applicable	not applicable
505.998	0.05	8	35_Trick32_long_combined_small.mp4	fixationPostAnswer	not applicable	not applicable	not applicable	not applicable	not applicable	not applicable	not applicable	not applicable	not applicable	not applicable	not applicable	not applicable	not applicable	not applicable
506.048	5.952	8	35_Trick32_long_combined_small.mp4	displayCuriosity	6	509.441302496998	not applicable	not applicable	not applicable	not applicable	not applicable	not applicable	not applicable	not applicable	not applicable	not applicable	not applicable	not applicable
512	4	8	35_Trick32_long_combined_small.mp4	fixationPostCuriosity	not applicable	not applicable	not applicable	not applicable	not applicable	not applicable	not applicable	not applicable	not applicable	not applicable	not applicable	not applicable	not applicable	not applicable
517.989	6.04	9	21_S15_combined_small.mp4	displayMockVid	not applicable	not applicable	not applicable	not applicable	not applicable	not applicable	not applicable	not applicable	not applicable	not applicable	not applicable	not applicable	not applicable	not applicable
524.03	31.978	9	21_S15_combined_small.mp4	displayVid	not applicable	not applicable	The magician tapped the ring on the stem of the wine glass and the ring ended up round the stem.	remembered	remembered	The magician places a ring on the stem of the glass without breaking it.	6	remembered	remembered	remembered	remembered	remembered	remembered	remembered
558.004	3.995	9	21_S15_combined_small.mp4	fixationPostVid	not applicable	not applicable	not applicable	not applicable	not applicable	not applicable	not applicable	not applicable	not applicable	not applicable	not applicable	not applicable	not applicable	not applicable
561.999	6	9	21_S15_combined_small.mp4	displayAnswer	0 to 10	562.840174439014	not applicable	not applicable	not applicable	not applicable	not applicable	not applicable	not applicable	not applicable	not applicable	not applicable	not applicable	not applicable
567.999	0.05	9	21_S15_combined_small.mp4	fixationPostAnswer	not applicable	not applicable	not applicable	not applicable	not applicable	not applicable	not applicable	not applicable	not applicable	not applicable	not applicable	not applicable	not applicable	not applicable
568.049	5.948	9	21_S15_combined_small.mp4	displayCuriosity	5	572.261957582028	not applicable	not applicable	not applicable	not applicable	not applicable	not applicable	not applicable	not applicable	not applicable	not applicable	not applicable	not applicable
573.997	4.002	9	21_S15_combined_small.mp4	fixationPostCuriosity	not applicable	not applicable	not applicable	not applicable	not applicable	not applicable	not applicable	not applicable	not applicable	not applicable	not applicable	not applicable	not applicable	not applicable
579.999	6.035	10	16_H19_combined_small.mp4	displayMockVid	not applicable	not applicable	not applicable	not applicable	not applicable	not applicable	not applicable	not applicable	not applicable	not applicable	not applicable	not applicable	not applicable	not applicable
586.034	22.618	10	16_H19_combined_small.mp4	displayVid	not applicable	not applicable	No recall.	forgotten	forgotten	The magician transforms matches into a lighter.	4	forgotten	forgotten	forgotten	forgotten	forgotten	forgotten	forgotten
609.99	6.003	10	16_H19_combined_small.mp4	fixationPostVid	not applicable	not applicable	not applicable	not applicable	not applicable	not applicable	not applicable	not applicable	not applicable	not applicable	not applicable	not applicable	not applicable	not applicable
615.993	6.005	10	16_H19_combined_small.mp4	displayAnswer	11 to 20	616.618939634005	not applicable	not applicable	not applicable	not applicable	not applicable	not applicable	not applicable	not applicable	not applicable	not applicable	not applicable	not applicable
621.998	0.05	10	16_H19_combined_small.mp4	fixationPostAnswer	not applicable	not applicable	not applicable	not applicable	not applicable	not applicable	not applicable	not applicable	not applicable	not applicable	not applicable	not applicable	not applicable	not applicable
622.048	5.95	10	16_H19_combined_small.mp4	displayCuriosity	5	625.560462752008	not applicable	not applicable	not applicable	not applicable	not applicable	not applicable	not applicable	not applicable	not applicable	not applicable	not applicable	not applicable
627.998	6	10	16_H19_combined_small.mp4	fixationPostCuriosity	not applicable	not applicable	not applicable	not applicable	not applicable	not applicable	not applicable	not applicable	not applicable	not applicable	not applicable	not applicable	not applicable	not applicable
635.992	6.039	11	07_K2_combined_small.mp4	displayMockVid	not applicable	not applicable	not applicable	not applicable	not applicable	not applicable	not applicable	not applicable	not applicable	not applicable	not applicable	not applicable	not applicable	not applicable
642.031	27.204	11	07_K2_combined_small.mp4	displayVid	not applicable	not applicable	The magician showed the book with pictures of sweets and then tapped it and the real sweets came out of the book and the pictures of sweets disappeared.	remembered	remembered	The sweets shown on the pages disappear.	5	forgotten	forgotten	forgotten	remembered	remembered	remembered	remembered
670.001	3.998	11	07_K2_combined_small.mp4	fixationPostVid	not applicable	not applicable	not applicable	not applicable	not applicable	not applicable	not applicable	not applicable	not applicable	not applicable	not applicable	not applicable	not applicable	not applicable
673.998	6.001	11	07_K2_combined_small.mp4	displayAnswer	21 to 30	674.938674221048	not applicable	not applicable	not applicable	not applicable	not applicable	not applicable	not applicable	not applicable	not applicable	not applicable	not applicable	not applicable
679.999	0.05	11	07_K2_combined_small.mp4	fixationPostAnswer	not applicable	not applicable	not applicable	not applicable	not applicable	not applicable	not applicable	not applicable	not applicable	not applicable	not applicable	not applicable	not applicable	not applicable
680.048	5.945	11	07_K2_combined_small.mp4	displayCuriosity	3	682.160574007023	not applicable	not applicable	not applicable	not applicable	not applicable	not applicable	not applicable	not applicable	not applicable	not applicable	not applicable	not applicable
685.994	10.004	11	07_K2_combined_small.mp4	fixationPostCuriosity	not applicable	not applicable	not applicable	not applicable	not applicable	not applicable	not applicable	not applicable	not applicable	not applicable	not applicable	not applicable	not applicable	not applicable
697.986	6.041	12	28_K24_combined_small.mp4	displayMockVid	not applicable	not applicable	not applicable	not applicable	not applicable	not applicable	not applicable	not applicable	not applicable	not applicable	not applicable	not applicable	not applicable	not applicable
704.027	24.219	12	28_K24_combined_small.mp4	displayVid	not applicable	not applicable	The magician folded the £10 note up and then when unfolded it it had magically become a £20 note.	remembered	remembered	A £10 note is transformed into a £20  note.	5	remembered	remembered	remembered	remembered	remembered	remembered	remembered
729.992	4.003	12	28_K24_combined_small.mp4	fixationPostVid	not applicable	not applicable	not applicable	not applicable	not applicable	not applicable	not applicable	not applicable	not applicable	not applicable	not applicable	not applicable	not applicable	not applicable
733.995	6.002	12	28_K24_combined_small.mp4	displayAnswer	11 to 20	734.828363467997	not applicable	not applicable	not applicable	not applicable	not applicable	not applicable	not applicable	not applicable	not applicable	not applicable	not applicable	not applicable
739.997	0.049	12	28_K24_combined_small.mp4	fixationPostAnswer	not applicable	not applicable	not applicable	not applicable	not applicable	not applicable	not applicable	not applicable	not applicable	not applicable	not applicable	not applicable	not applicable	not applicable
740.047	5.951	12	28_K24_combined_small.mp4	displayCuriosity	3	742.683913035027	not applicable	not applicable	not applicable	not applicable	not applicable	not applicable	not applicable	not applicable	not applicable	not applicable	not applicable	not applicable
745.997	4	12	28_K24_combined_small.mp4	fixationPostCuriosity	not applicable	not applicable	not applicable	not applicable	not applicable	not applicable	not applicable	not applicable	not applicable	not applicable	not applicable	not applicable	not applicable	not applicable
