onset	duration	trial	stim_file	event	response	response_timestamp	response_recall	trial_type_cuedRecallStrict	trial_type_cuedRecallLenient	response_recognition	response_confidence	trial_type_allConf	trial_type_highConf	trial_type_aboveAvgConf	trial_type_rememberedStrictAboveAvg	trial_type_rememberedLenientAboveAvg	trial_type_rememberedStrictHigh	trial_type_rememberedLenientHigh
1.999	6.033	25	18_Trick4_combined_small.mp4	displayMockVid	not applicable	not applicable	not applicable	not applicable	not applicable	not applicable	not applicable	not applicable	not applicable	not applicable	not applicable	not applicable	not applicable	not applicable
8.032	47.819	25	18_Trick4_combined_small.mp4	displayVid	not applicable	not applicable	no recall	forgotten	forgotten	The magician puts the mobile phone inside the balloon with a simple gesture of his hands.	1	remembered	forgotten	forgotten	forgotten	forgotten	forgotten	forgotten
56	3.999	25	18_Trick4_combined_small.mp4	fixationPostVid	not applicable	not applicable	not applicable	not applicable	not applicable	not applicable	not applicable	not applicable	not applicable	not applicable	not applicable	not applicable	not applicable	not applicable
59.999	6.001	25	18_Trick4_combined_small.mp4	displayAnswer	31 or more	60.5266359359957	not applicable	not applicable	not applicable	not applicable	not applicable	not applicable	not applicable	not applicable	not applicable	not applicable	not applicable	not applicable
65.999	0.05	25	18_Trick4_combined_small.mp4	fixationPostAnswer	not applicable	not applicable	not applicable	not applicable	not applicable	not applicable	not applicable	not applicable	not applicable	not applicable	not applicable	not applicable	not applicable	not applicable
66.049	5.95	25	18_Trick4_combined_small.mp4	displayCuriosity	4	68.6324207640137	not applicable	not applicable	not applicable	not applicable	not applicable	not applicable	not applicable	not applicable	not applicable	not applicable	not applicable	not applicable
71.999	7.999	25	18_Trick4_combined_small.mp4	fixationPostCuriosity	not applicable	not applicable	not applicable	not applicable	not applicable	not applicable	not applicable	not applicable	not applicable	not applicable	not applicable	not applicable	not applicable	not applicable
81.998	6.036	26	12_H37_combined_small.mp4	displayMockVid	not applicable	not applicable	not applicable	not applicable	not applicable	not applicable	not applicable	not applicable	not applicable	not applicable	not applicable	not applicable	not applicable	not applicable
88.035	28.772	26	12_H37_combined_small.mp4	displayVid	not applicable	not applicable	no recall	forgotten	forgotten	The magician detaches his thumb, but when he turns his hands, the thumb is reattached.	3	forgotten	forgotten	forgotten	forgotten	forgotten	forgotten	forgotten
117.999	3.998	26	12_H37_combined_small.mp4	fixationPostVid	not applicable	not applicable	not applicable	not applicable	not applicable	not applicable	not applicable	not applicable	not applicable	not applicable	not applicable	not applicable	not applicable	not applicable
121.997	6	26	12_H37_combined_small.mp4	displayAnswer	31 or more	122.611074610031	not applicable	not applicable	not applicable	not applicable	not applicable	not applicable	not applicable	not applicable	not applicable	not applicable	not applicable	not applicable
127.998	0.05	26	12_H37_combined_small.mp4	fixationPostAnswer	not applicable	not applicable	not applicable	not applicable	not applicable	not applicable	not applicable	not applicable	not applicable	not applicable	not applicable	not applicable	not applicable	not applicable
128.048	5.949	26	12_H37_combined_small.mp4	displayCuriosity	5	132.555889154028	not applicable	not applicable	not applicable	not applicable	not applicable	not applicable	not applicable	not applicable	not applicable	not applicable	not applicable	not applicable
133.997	4	26	12_H37_combined_small.mp4	fixationPostCuriosity	not applicable	not applicable	not applicable	not applicable	not applicable	not applicable	not applicable	not applicable	not applicable	not applicable	not applicable	not applicable	not applicable	not applicable
140.008	6.023	27	36_Trick7_short_combined_small.mp4	displayMockVid	not applicable	not applicable	not applicable	not applicable	not applicable	not applicable	not applicable	not applicable	not applicable	not applicable	not applicable	not applicable	not applicable	not applicable
146.031	20.633	27	36_Trick7_short_combined_small.mp4	displayVid	not applicable	not applicable	no recall but I remember this frame	forgotten	forgotten	The magician gets the volunteer to hold a foam ball, which he then transforms into  two balls.	2	remembered	forgotten	forgotten	forgotten	forgotten	forgotten	forgotten
168.012	4.002	27	36_Trick7_short_combined_small.mp4	fixationPostVid	not applicable	not applicable	not applicable	not applicable	not applicable	not applicable	not applicable	not applicable	not applicable	not applicable	not applicable	not applicable	not applicable	not applicable
172.014	6.001	27	36_Trick7_short_combined_small.mp4	displayAnswer	11 to 20	174.519419744029	not applicable	not applicable	not applicable	not applicable	not applicable	not applicable	not applicable	not applicable	not applicable	not applicable	not applicable	not applicable
178.015	0.05	27	36_Trick7_short_combined_small.mp4	fixationPostAnswer	not applicable	not applicable	not applicable	not applicable	not applicable	not applicable	not applicable	not applicable	not applicable	not applicable	not applicable	not applicable	not applicable	not applicable
178.064	5.95	27	36_Trick7_short_combined_small.mp4	displayCuriosity	3	182.140711718996	not applicable	not applicable	not applicable	not applicable	not applicable	not applicable	not applicable	not applicable	not applicable	not applicable	not applicable	not applicable
184.014	4	27	36_Trick7_short_combined_small.mp4	fixationPostCuriosity	not applicable	not applicable	not applicable	not applicable	not applicable	not applicable	not applicable	not applicable	not applicable	not applicable	not applicable	not applicable	not applicable	not applicable
190.011	6.038	28	28_K24_combined_small.mp4	displayMockVid	not applicable	not applicable	not applicable	not applicable	not applicable	not applicable	not applicable	not applicable	not applicable	not applicable	not applicable	not applicable	not applicable	not applicable
196.049	24.218	28	28_K24_combined_small.mp4	displayVid	not applicable	not applicable	he folded up the £10 note it was unfolded to reveal a £20 	remembered	remembered	A £10 note is transformed into a £20  note.	6	remembered	remembered	remembered	remembered	remembered	remembered	remembered
222.001	3.997	28	28_K24_combined_small.mp4	fixationPostVid	not applicable	not applicable	not applicable	not applicable	not applicable	not applicable	not applicable	not applicable	not applicable	not applicable	not applicable	not applicable	not applicable	not applicable
225.997	5.999	28	28_K24_combined_small.mp4	displayAnswer	11 to 20	228.515480538015	not applicable	not applicable	not applicable	not applicable	not applicable	not applicable	not applicable	not applicable	not applicable	not applicable	not applicable	not applicable
231.997	0.05	28	28_K24_combined_small.mp4	fixationPostAnswer	not applicable	not applicable	not applicable	not applicable	not applicable	not applicable	not applicable	not applicable	not applicable	not applicable	not applicable	not applicable	not applicable	not applicable
232.047	5.949	28	28_K24_combined_small.mp4	displayCuriosity	3	236.707719780039	not applicable	not applicable	not applicable	not applicable	not applicable	not applicable	not applicable	not applicable	not applicable	not applicable	not applicable	not applicable
237.995	4.001	28	28_K24_combined_small.mp4	fixationPostCuriosity	not applicable	not applicable	not applicable	not applicable	not applicable	not applicable	not applicable	not applicable	not applicable	not applicable	not applicable	not applicable	not applicable	not applicable
243.999	6.023	29	33_S21_combined_small.mp4	displayMockVid	not applicable	not applicable	not applicable	not applicable	not applicable	not applicable	not applicable	not applicable	not applicable	not applicable	not applicable	not applicable	not applicable	not applicable
250.022	21.823	29	33_S21_combined_small.mp4	displayVid	not applicable	not applicable	he folded up the spoon without breaking it	remembered	remembered	The magician bents the spoon only sing his pinkie as a force.	2	forgotten	forgotten	forgotten	remembered	remembered	remembered	remembered
271.997	5.999	29	33_S21_combined_small.mp4	fixationPostVid	not applicable	not applicable	not applicable	not applicable	not applicable	not applicable	not applicable	not applicable	not applicable	not applicable	not applicable	not applicable	not applicable	not applicable
277.996	5.999	29	33_S21_combined_small.mp4	displayAnswer	11 to 20	280.525487561012	not applicable	not applicable	not applicable	not applicable	not applicable	not applicable	not applicable	not applicable	not applicable	not applicable	not applicable	not applicable
283.995	0.05	29	33_S21_combined_small.mp4	fixationPostAnswer	not applicable	not applicable	not applicable	not applicable	not applicable	not applicable	not applicable	not applicable	not applicable	not applicable	not applicable	not applicable	not applicable	not applicable
284.045	5.951	29	33_S21_combined_small.mp4	displayCuriosity	2	286.564892254013	not applicable	not applicable	not applicable	not applicable	not applicable	not applicable	not applicable	not applicable	not applicable	not applicable	not applicable	not applicable
289.995	4	29	33_S21_combined_small.mp4	fixationPostCuriosity	not applicable	not applicable	not applicable	not applicable	not applicable	not applicable	not applicable	not applicable	not applicable	not applicable	not applicable	not applicable	not applicable	not applicable
296.004	6.027	30	10_S27_combined_small.mp4	displayMockVid	not applicable	not applicable	not applicable	not applicable	not applicable	not applicable	not applicable	not applicable	not applicable	not applicable	not applicable	not applicable	not applicable	not applicable
302.031	31.583	30	10_S27_combined_small.mp4	displayVid	not applicable	not applicable	he poured water into the cups there was no water in the cups 	remembered	remembered	The magician pours water into a cup from the bottle and then pours the water into another cup but when he tips it upside down, no water spills out.	3	remembered	forgotten	forgotten	remembered	remembered	remembered	remembered
333.998	3.997	30	10_S27_combined_small.mp4	fixationPostVid	not applicable	not applicable	not applicable	not applicable	not applicable	not applicable	not applicable	not applicable	not applicable	not applicable	not applicable	not applicable	not applicable	not applicable
337.995	5.999	30	10_S27_combined_small.mp4	displayAnswer	11 to 20	341.475958644995	not applicable	not applicable	not applicable	not applicable	not applicable	not applicable	not applicable	not applicable	not applicable	not applicable	not applicable	not applicable
343.995	0.051	30	10_S27_combined_small.mp4	fixationPostAnswer	not applicable	not applicable	not applicable	not applicable	not applicable	not applicable	not applicable	not applicable	not applicable	not applicable	not applicable	not applicable	not applicable	not applicable
344.046	5.947	30	10_S27_combined_small.mp4	displayCuriosity	4	347.609802210005	not applicable	not applicable	not applicable	not applicable	not applicable	not applicable	not applicable	not applicable	not applicable	not applicable	not applicable	not applicable
349.992	4.003	30	10_S27_combined_small.mp4	fixationPostCuriosity	not applicable	not applicable	not applicable	not applicable	not applicable	not applicable	not applicable	not applicable	not applicable	not applicable	not applicable	not applicable	not applicable	not applicable
355.997	6.034	31	30_H15_combined_small.mp4	displayMockVid	not applicable	not applicable	not applicable	not applicable	not applicable	not applicable	not applicable	not applicable	not applicable	not applicable	not applicable	not applicable	not applicable	not applicable
362.03	31.898	31	30_H15_combined_small.mp4	displayVid	not applicable	not applicable	he made an incision into the card with the toothpick displayed it to the camera and when the toothpick was removed there was no hole	forgotten	forgotten	The magician balances a toothpick on a deck of cards.	5	remembered	remembered	remembered	remembered	remembered	remembered	remembered
394.008	4.003	31	30_H15_combined_small.mp4	fixationPostVid	not applicable	not applicable	not applicable	not applicable	not applicable	not applicable	not applicable	not applicable	not applicable	not applicable	not applicable	not applicable	not applicable	not applicable
398.011	6	31	30_H15_combined_small.mp4	displayAnswer	21 to 30	400.064378360985	not applicable	not applicable	not applicable	not applicable	not applicable	not applicable	not applicable	not applicable	not applicable	not applicable	not applicable	not applicable
404.011	0.05	31	30_H15_combined_small.mp4	fixationPostAnswer	not applicable	not applicable	not applicable	not applicable	not applicable	not applicable	not applicable	not applicable	not applicable	not applicable	not applicable	not applicable	not applicable	not applicable
404.061	5.951	31	30_H15_combined_small.mp4	displayCuriosity	5	408.761462413997	not applicable	not applicable	not applicable	not applicable	not applicable	not applicable	not applicable	not applicable	not applicable	not applicable	not applicable	not applicable
410.012	7.997	31	30_H15_combined_small.mp4	fixationPostCuriosity	not applicable	not applicable	not applicable	not applicable	not applicable	not applicable	not applicable	not applicable	not applicable	not applicable	not applicable	not applicable	not applicable	not applicable
420.01	6.036	32	26_S30_combined_small.mp4	displayMockVid	not applicable	not applicable	not applicable	not applicable	not applicable	not applicable	not applicable	not applicable	not applicable	not applicable	not applicable	not applicable	not applicable	not applicable
426.046	25.167	32	26_S30_combined_small.mp4	displayVid	not applicable	not applicable	no recall	forgotten	forgotten	The magician pulls string through two sticks which appear to be connected. However he then reveals thw two sticks are not connected at all.	1	remembered	forgotten	forgotten	forgotten	forgotten	forgotten	forgotten
452	4.003	32	26_S30_combined_small.mp4	fixationPostVid	not applicable	not applicable	not applicable	not applicable	not applicable	not applicable	not applicable	not applicable	not applicable	not applicable	not applicable	not applicable	not applicable	not applicable
456.003	6.005	32	26_S30_combined_small.mp4	displayAnswer	31 or more	456.435558931029	not applicable	not applicable	not applicable	not applicable	not applicable	not applicable	not applicable	not applicable	not applicable	not applicable	not applicable	not applicable
462.008	0.049	32	26_S30_combined_small.mp4	fixationPostAnswer	not applicable	not applicable	not applicable	not applicable	not applicable	not applicable	not applicable	not applicable	not applicable	not applicable	not applicable	not applicable	not applicable	not applicable
462.057	5.953	32	26_S30_combined_small.mp4	displayCuriosity	5	466.402293697989	not applicable	not applicable	not applicable	not applicable	not applicable	not applicable	not applicable	not applicable	not applicable	not applicable	not applicable	not applicable
468.01	4	32	26_S30_combined_small.mp4	fixationPostCuriosity	not applicable	not applicable	not applicable	not applicable	not applicable	not applicable	not applicable	not applicable	not applicable	not applicable	not applicable	not applicable	not applicable	not applicable
473.998	6.024	33	24_Trick28_combined_small.mp4	displayMockVid	not applicable	not applicable	not applicable	not applicable	not applicable	not applicable	not applicable	not applicable	not applicable	not applicable	not applicable	not applicable	not applicable	not applicable
480.021	40.454	33	24_Trick28_combined_small.mp4	displayVid	not applicable	not applicable	he linked the metal rings and then separated them without force	remembered	remembered	The magician links and unlinks several silver rings while the rings shape their appearance once they get linked.	2	forgotten	forgotten	forgotten	remembered	remembered	remembered	remembered
522.001	4.002	33	24_Trick28_combined_small.mp4	fixationPostVid	not applicable	not applicable	not applicable	not applicable	not applicable	not applicable	not applicable	not applicable	not applicable	not applicable	not applicable	not applicable	not applicable	not applicable
526.003	6.005	33	24_Trick28_combined_small.mp4	displayAnswer	31 or more	526.434938491031	not applicable	not applicable	not applicable	not applicable	not applicable	not applicable	not applicable	not applicable	not applicable	not applicable	not applicable	not applicable
532.008	0.049	33	24_Trick28_combined_small.mp4	fixationPostAnswer	not applicable	not applicable	not applicable	not applicable	not applicable	not applicable	not applicable	not applicable	not applicable	not applicable	not applicable	not applicable	not applicable	not applicable
532.057	5.952	33	24_Trick28_combined_small.mp4	displayCuriosity	3	534.752857782005	not applicable	not applicable	not applicable	not applicable	not applicable	not applicable	not applicable	not applicable	not applicable	not applicable	not applicable	not applicable
538.009	4	33	24_Trick28_combined_small.mp4	fixationPostCuriosity	not applicable	not applicable	not applicable	not applicable	not applicable	not applicable	not applicable	not applicable	not applicable	not applicable	not applicable	not applicable	not applicable	not applicable
543.998	6.03	34	03_H16_combined_small.mp4	displayMockVid	not applicable	not applicable	not applicable	not applicable	not applicable	not applicable	not applicable	not applicable	not applicable	not applicable	not applicable	not applicable	not applicable	not applicable
550.028	33.619	34	03_H16_combined_small.mp4	displayVid	not applicable	not applicable	he used an empty can of cola to fill the glass	remembered	remembered	Although the can seems empty, the magician is able to pour sparkling water.	4	forgotten	forgotten	forgotten	remembered	remembered	remembered	remembered
583.996	3.996	34	03_H16_combined_small.mp4	fixationPostVid	not applicable	not applicable	not applicable	not applicable	not applicable	not applicable	not applicable	not applicable	not applicable	not applicable	not applicable	not applicable	not applicable	not applicable
587.991	6	34	03_H16_combined_small.mp4	displayAnswer	21 to 30	590.051234890008	not applicable	not applicable	not applicable	not applicable	not applicable	not applicable	not applicable	not applicable	not applicable	not applicable	not applicable	not applicable
593.991	0.05	34	03_H16_combined_small.mp4	fixationPostAnswer	not applicable	not applicable	not applicable	not applicable	not applicable	not applicable	not applicable	not applicable	not applicable	not applicable	not applicable	not applicable	not applicable	not applicable
594.041	5.948	34	03_H16_combined_small.mp4	displayCuriosity	5	596.767581977008	not applicable	not applicable	not applicable	not applicable	not applicable	not applicable	not applicable	not applicable	not applicable	not applicable	not applicable	not applicable
599.99	10.002	34	03_H16_combined_small.mp4	fixationPostCuriosity	not applicable	not applicable	not applicable	not applicable	not applicable	not applicable	not applicable	not applicable	not applicable	not applicable	not applicable	not applicable	not applicable	not applicable
611.998	6.029	35	15_S18_combined_small.mp4	displayMockVid	not applicable	not applicable	not applicable	not applicable	not applicable	not applicable	not applicable	not applicable	not applicable	not applicable	not applicable	not applicable	not applicable	not applicable
618.027	31.935	35	15_S18_combined_small.mp4	displayVid	not applicable	not applicable	no recall i couldnt see this one in the scanner	forgotten	forgotten	The magician produces a rabbit out of the empty paper bag.	3	forgotten	forgotten	forgotten	forgotten	forgotten	forgotten	forgotten
650.008	4	35	15_S18_combined_small.mp4	fixationPostVid	not applicable	not applicable	not applicable	not applicable	not applicable	not applicable	not applicable	not applicable	not applicable	not applicable	not applicable	not applicable	not applicable	not applicable
654.008	5.999	35	15_S18_combined_small.mp4	displayAnswer	31 or more	654.420462539012	not applicable	not applicable	not applicable	not applicable	not applicable	not applicable	not applicable	not applicable	not applicable	not applicable	not applicable	not applicable
660.007	0.05	35	15_S18_combined_small.mp4	fixationPostAnswer	not applicable	not applicable	not applicable	not applicable	not applicable	not applicable	not applicable	not applicable	not applicable	not applicable	not applicable	not applicable	not applicable	not applicable
660.057	5.947	35	15_S18_combined_small.mp4	displayCuriosity	6	662.552394806	not applicable	not applicable	not applicable	not applicable	not applicable	not applicable	not applicable	not applicable	not applicable	not applicable	not applicable	not applicable
666.004	4.002	35	15_S18_combined_small.mp4	fixationPostCuriosity	not applicable	not applicable	not applicable	not applicable	not applicable	not applicable	not applicable	not applicable	not applicable	not applicable	not applicable	not applicable	not applicable	not applicable
672.007	6.035	36	11_K21_long_combined_small.mp4	displayMockVid	not applicable	not applicable	not applicable	not applicable	not applicable	not applicable	not applicable	not applicable	not applicable	not applicable	not applicable	not applicable	not applicable	not applicable
678.043	43.766	36	11_K21_long_combined_small.mp4	displayVid	not applicable	not applicable	no recall	forgotten	forgotten	The magician flips the middle card over with a slight gesture and then changes the colour of the back of the card from blue to red.	3	remembered	forgotten	forgotten	forgotten	forgotten	forgotten	forgotten
721.995	10.006	36	11_K21_long_combined_small.mp4	fixationPostVid	not applicable	not applicable	not applicable	not applicable	not applicable	not applicable	not applicable	not applicable	not applicable	not applicable	not applicable	not applicable	not applicable	not applicable
732.001	6.004	36	11_K21_long_combined_small.mp4	displayAnswer	21 to 30	732.727171107021	not applicable	not applicable	not applicable	not applicable	not applicable	not applicable	not applicable	not applicable	not applicable	not applicable	not applicable	not applicable
738.006	0.05	36	11_K21_long_combined_small.mp4	fixationPostAnswer	not applicable	not applicable	not applicable	not applicable	not applicable	not applicable	not applicable	not applicable	not applicable	not applicable	not applicable	not applicable	not applicable	not applicable
738.055	5.951	36	11_K21_long_combined_small.mp4	displayCuriosity	5	741.368922393012	not applicable	not applicable	not applicable	not applicable	not applicable	not applicable	not applicable	not applicable	not applicable	not applicable	not applicable	not applicable
744.006	4.001	36	11_K21_long_combined_small.mp4	fixationPostCuriosity	not applicable	not applicable	not applicable	not applicable	not applicable	not applicable	not applicable	not applicable	not applicable	not applicable	not applicable	not applicable	not applicable	not applicable
