onset	duration	trial	stim_file	event	response	response_timestamp	response_recall	trial_type_cuedRecallStrict	trial_type_cuedRecallLenient	response_recognition	response_confidence	trial_type_allConf	trial_type_highConf	trial_type_aboveAvgConf	trial_type_rememberedStrictAboveAvg	trial_type_rememberedLenientAboveAvg	trial_type_rememberedStrictHigh	trial_type_rememberedLenientHigh
2.001	6.035	13	04_S9_combined_small.mp4	displayMockVid	not applicable	not applicable	not applicable	not applicable	not applicable	not applicable	not applicable	not applicable	not applicable	not applicable	not applicable	not applicable	not applicable	not applicable
8.036	32.455	13	04_S9_combined_small.mp4	displayVid	not applicable	not applicable	no recall but I remember this frame	forgotten	forgotten	The magician covers the cards with a silk handkerchief. After the silk is removed, the cards are blank.	4	forgotten	forgotten	forgotten	forgotten	forgotten	forgotten	forgotten
41.998	6.004	13	04_S9_combined_small.mp4	fixationPostVid	not applicable	not applicable	not applicable	not applicable	not applicable	not applicable	not applicable	not applicable	not applicable	not applicable	not applicable	not applicable	not applicable	not applicable
48.002	5.999	13	04_S9_combined_small.mp4	displayAnswer	21 to 30	48.9017505780212	not applicable	not applicable	not applicable	not applicable	not applicable	not applicable	not applicable	not applicable	not applicable	not applicable	not applicable	not applicable
54.001	0.049	13	04_S9_combined_small.mp4	fixationPostAnswer	not applicable	not applicable	not applicable	not applicable	not applicable	not applicable	not applicable	not applicable	not applicable	not applicable	not applicable	not applicable	not applicable	not applicable
54.05	5.951	13	04_S9_combined_small.mp4	displayCuriosity	3	58.4317030209932	not applicable	not applicable	not applicable	not applicable	not applicable	not applicable	not applicable	not applicable	not applicable	not applicable	not applicable	not applicable
60.001	3.997	13	04_S9_combined_small.mp4	fixationPostCuriosity	not applicable	not applicable	not applicable	not applicable	not applicable	not applicable	not applicable	not applicable	not applicable	not applicable	not applicable	not applicable	not applicable	not applicable
65.998	6.005	14	06_H7_combined_small.mp4	displayMockVid	not applicable	not applicable	not applicable	not applicable	not applicable	not applicable	not applicable	not applicable	not applicable	not applicable	not applicable	not applicable	not applicable	not applicable
72.003	33.893	14	06_H7_combined_small.mp4	displayVid	not applicable	not applicable	no recall	forgotten	forgotten	The magician wraps the salt shaker in the cloth and makes it disappear.	2	forgotten	forgotten	forgotten	forgotten	forgotten	forgotten	forgotten
106.001	3.996	14	06_H7_combined_small.mp4	fixationPostVid	not applicable	not applicable	not applicable	not applicable	not applicable	not applicable	not applicable	not applicable	not applicable	not applicable	not applicable	not applicable	not applicable	not applicable
109.997	6.003	14	06_H7_combined_small.mp4	displayAnswer	11 to 20	112.302531534981	not applicable	not applicable	not applicable	not applicable	not applicable	not applicable	not applicable	not applicable	not applicable	not applicable	not applicable	not applicable
116	0.05	14	06_H7_combined_small.mp4	fixationPostAnswer	not applicable	not applicable	not applicable	not applicable	not applicable	not applicable	not applicable	not applicable	not applicable	not applicable	not applicable	not applicable	not applicable	not applicable
116.05	5.972	14	06_H7_combined_small.mp4	displayCuriosity	3	121.975709748978	not applicable	not applicable	not applicable	not applicable	not applicable	not applicable	not applicable	not applicable	not applicable	not applicable	not applicable	not applicable
122.022	4.003	14	06_H7_combined_small.mp4	fixationPostCuriosity	not applicable	not applicable	not applicable	not applicable	not applicable	not applicable	not applicable	not applicable	not applicable	not applicable	not applicable	not applicable	not applicable	not applicable
128	6.033	15	32_K16_short_combined_small.mp4	displayMockVid	not applicable	not applicable	not applicable	not applicable	not applicable	not applicable	not applicable	not applicable	not applicable	not applicable	not applicable	not applicable	not applicable	not applicable
134.033	31.42	15	32_K16_short_combined_small.mp4	displayVid	not applicable	not applicable	the woman wrote her initials on a card the magician did some magic and gave her back the card	forgotten	remembered	The magician asks the volunteer to mark the cards using the pen. After he shuffles them, the volunteer's writing has disappeared from all of the cards.	2	forgotten	forgotten	forgotten	forgotten	remembered	forgotten	remembered
166	10	15	32_K16_short_combined_small.mp4	fixationPostVid	not applicable	not applicable	not applicable	not applicable	not applicable	not applicable	not applicable	not applicable	not applicable	not applicable	not applicable	not applicable	not applicable	not applicable
176	5.999	15	32_K16_short_combined_small.mp4	displayAnswer	31 or more	176.425445988018	not applicable	not applicable	not applicable	not applicable	not applicable	not applicable	not applicable	not applicable	not applicable	not applicable	not applicable	not applicable
181.999	0.05	15	32_K16_short_combined_small.mp4	fixationPostAnswer	not applicable	not applicable	not applicable	not applicable	not applicable	not applicable	not applicable	not applicable	not applicable	not applicable	not applicable	not applicable	not applicable	not applicable
182.049	5.951	15	32_K16_short_combined_small.mp4	displayCuriosity	5	183.878561922	not applicable	not applicable	not applicable	not applicable	not applicable	not applicable	not applicable	not applicable	not applicable	not applicable	not applicable	not applicable
187.999	4	15	32_K16_short_combined_small.mp4	fixationPostCuriosity	not applicable	not applicable	not applicable	not applicable	not applicable	not applicable	not applicable	not applicable	not applicable	not applicable	not applicable	not applicable	not applicable	not applicable
193.999	6.031	16	19_H17_combined_small.mp4	displayMockVid	not applicable	not applicable	not applicable	not applicable	not applicable	not applicable	not applicable	not applicable	not applicable	not applicable	not applicable	not applicable	not applicable	not applicable
200.03	46.619	16	19_H17_combined_small.mp4	displayVid	not applicable	not applicable	no recall	forgotten	forgotten	The magician uses a guillotine to slice breadsticks, but not the volunteer's finger.	5	remembered	remembered	remembered	remembered	remembered	remembered	remembered
247.997	4.002	16	19_H17_combined_small.mp4	fixationPostVid	not applicable	not applicable	not applicable	not applicable	not applicable	not applicable	not applicable	not applicable	not applicable	not applicable	not applicable	not applicable	not applicable	not applicable
251.999	6	16	19_H17_combined_small.mp4	displayAnswer	21 to 30	253.593708308006	not applicable	not applicable	not applicable	not applicable	not applicable	not applicable	not applicable	not applicable	not applicable	not applicable	not applicable	not applicable
257.999	0.049	16	19_H17_combined_small.mp4	fixationPostAnswer	not applicable	not applicable	not applicable	not applicable	not applicable	not applicable	not applicable	not applicable	not applicable	not applicable	not applicable	not applicable	not applicable	not applicable
258.047	5.952	16	19_H17_combined_small.mp4	displayCuriosity	4	262.120008776023	not applicable	not applicable	not applicable	not applicable	not applicable	not applicable	not applicable	not applicable	not applicable	not applicable	not applicable	not applicable
263.999	3.996	16	19_H17_combined_small.mp4	fixationPostCuriosity	not applicable	not applicable	not applicable	not applicable	not applicable	not applicable	not applicable	not applicable	not applicable	not applicable	not applicable	not applicable	not applicable	not applicable
269.995	6.023	17	16_H19_combined_small.mp4	displayMockVid	not applicable	not applicable	not applicable	not applicable	not applicable	not applicable	not applicable	not applicable	not applicable	not applicable	not applicable	not applicable	not applicable	not applicable
276.018	22.633	17	16_H19_combined_small.mp4	displayVid	not applicable	not applicable	no recall but I remember this frame	forgotten	forgotten	The magician presses a lit match into volunteer's hand without hurting her.	2	forgotten	forgotten	forgotten	forgotten	forgotten	forgotten	forgotten
299.998	4	17	16_H19_combined_small.mp4	fixationPostVid	not applicable	not applicable	not applicable	not applicable	not applicable	not applicable	not applicable	not applicable	not applicable	not applicable	not applicable	not applicable	not applicable	not applicable
303.998	6	17	16_H19_combined_small.mp4	displayAnswer	21 to 30	306.988842007006	not applicable	not applicable	not applicable	not applicable	not applicable	not applicable	not applicable	not applicable	not applicable	not applicable	not applicable	not applicable
309.998	0.049	17	16_H19_combined_small.mp4	fixationPostAnswer	not applicable	not applicable	not applicable	not applicable	not applicable	not applicable	not applicable	not applicable	not applicable	not applicable	not applicable	not applicable	not applicable	not applicable
310.047	5.948	17	16_H19_combined_small.mp4	displayCuriosity	5	313.361249773996	not applicable	not applicable	not applicable	not applicable	not applicable	not applicable	not applicable	not applicable	not applicable	not applicable	not applicable	not applicable
315.995	4.002	17	16_H19_combined_small.mp4	fixationPostCuriosity	not applicable	not applicable	not applicable	not applicable	not applicable	not applicable	not applicable	not applicable	not applicable	not applicable	not applicable	not applicable	not applicable	not applicable
321.997	6.025	18	29_H36_combined_small.mp4	displayMockVid	not applicable	not applicable	not applicable	not applicable	not applicable	not applicable	not applicable	not applicable	not applicable	not applicable	not applicable	not applicable	not applicable	not applicable
328.022	36.428	18	29_H36_combined_small.mp4	displayVid	not applicable	not applicable	he fastened the bolt and unfastened it	remembered	remembered	The nut is placed on the middle of the bold by the volunteer and magically unscrews itself.	1	remembered	forgotten	forgotten	remembered	remembered	remembered	remembered
365.997	4	18	29_H36_combined_small.mp4	fixationPostVid	not applicable	not applicable	not applicable	not applicable	not applicable	not applicable	not applicable	not applicable	not applicable	not applicable	not applicable	not applicable	not applicable	not applicable
369.997	6	18	29_H36_combined_small.mp4	displayAnswer	31 or more	370.660417884006	not applicable	not applicable	not applicable	not applicable	not applicable	not applicable	not applicable	not applicable	not applicable	not applicable	not applicable	not applicable
375.997	0.049	18	29_H36_combined_small.mp4	fixationPostAnswer	not applicable	not applicable	not applicable	not applicable	not applicable	not applicable	not applicable	not applicable	not applicable	not applicable	not applicable	not applicable	not applicable	not applicable
376.047	5.946	18	29_H36_combined_small.mp4	displayCuriosity	3	378.801982341975	not applicable	not applicable	not applicable	not applicable	not applicable	not applicable	not applicable	not applicable	not applicable	not applicable	not applicable	not applicable
381.992	4.003	18	29_H36_combined_small.mp4	fixationPostCuriosity	not applicable	not applicable	not applicable	not applicable	not applicable	not applicable	not applicable	not applicable	not applicable	not applicable	not applicable	not applicable	not applicable	not applicable
387.996	6.036	19	05_K4_combined_small.mp4	displayMockVid	not applicable	not applicable	not applicable	not applicable	not applicable	not applicable	not applicable	not applicable	not applicable	not applicable	not applicable	not applicable	not applicable	not applicable
394.032	31.179	19	05_K4_combined_small.mp4	displayVid	not applicable	not applicable	he used magic to solve the rubix cube	remembered	remembered	The magician solves the rubix cube by spinning it in the air.	6	remembered	remembered	remembered	remembered	remembered	remembered	remembered
425.996	7.999	19	05_K4_combined_small.mp4	fixationPostVid	not applicable	not applicable	not applicable	not applicable	not applicable	not applicable	not applicable	not applicable	not applicable	not applicable	not applicable	not applicable	not applicable	not applicable
433.996	5.999	19	05_K4_combined_small.mp4	displayAnswer	21 to 30	436.225130837993	not applicable	not applicable	not applicable	not applicable	not applicable	not applicable	not applicable	not applicable	not applicable	not applicable	not applicable	not applicable
439.995	0.05	19	05_K4_combined_small.mp4	fixationPostAnswer	not applicable	not applicable	not applicable	not applicable	not applicable	not applicable	not applicable	not applicable	not applicable	not applicable	not applicable	not applicable	not applicable	not applicable
440.045	5.951	19	05_K4_combined_small.mp4	displayCuriosity	5	442.925960908004	not applicable	not applicable	not applicable	not applicable	not applicable	not applicable	not applicable	not applicable	not applicable	not applicable	not applicable	not applicable
445.996	4	19	05_K4_combined_small.mp4	fixationPostCuriosity	not applicable	not applicable	not applicable	not applicable	not applicable	not applicable	not applicable	not applicable	not applicable	not applicable	not applicable	not applicable	not applicable	not applicable
451.993	6.023	20	34_Trick38_combined_small.mp4	displayMockVid	not applicable	not applicable	not applicable	not applicable	not applicable	not applicable	not applicable	not applicable	not applicable	not applicable	not applicable	not applicable	not applicable	not applicable
458.016	27.423	20	34_Trick38_combined_small.mp4	displayVid	not applicable	not applicable	the handkerchief was folded up and a purple one appeared 	forgotten	forgotten	The magician closes his hand around a green silk handerchief, but when he opens his hand, the silk is blue.	4	forgotten	forgotten	forgotten	forgotten	forgotten	forgotten	forgotten
485.996	3.999	20	34_Trick38_combined_small.mp4	fixationPostVid	not applicable	not applicable	not applicable	not applicable	not applicable	not applicable	not applicable	not applicable	not applicable	not applicable	not applicable	not applicable	not applicable	not applicable
489.995	5.997	20	34_Trick38_combined_small.mp4	displayAnswer	21 to 30	493.170471030986	not applicable	not applicable	not applicable	not applicable	not applicable	not applicable	not applicable	not applicable	not applicable	not applicable	not applicable	not applicable
495.992	0.049	20	34_Trick38_combined_small.mp4	fixationPostAnswer	not applicable	not applicable	not applicable	not applicable	not applicable	not applicable	not applicable	not applicable	not applicable	not applicable	not applicable	not applicable	not applicable	not applicable
496.041	5.955	20	34_Trick38_combined_small.mp4	displayCuriosity	2	498.979843513982	not applicable	not applicable	not applicable	not applicable	not applicable	not applicable	not applicable	not applicable	not applicable	not applicable	not applicable	not applicable
501.995	4	20	34_Trick38_combined_small.mp4	fixationPostCuriosity	not applicable	not applicable	not applicable	not applicable	not applicable	not applicable	not applicable	not applicable	not applicable	not applicable	not applicable	not applicable	not applicable	not applicable
507.995	6.029	21	01_H35_combined_small.mp4	displayMockVid	not applicable	not applicable	not applicable	not applicable	not applicable	not applicable	not applicable	not applicable	not applicable	not applicable	not applicable	not applicable	not applicable	not applicable
514.023	37.663	21	01_H35_combined_small.mp4	displayVid	not applicable	not applicable	the selected card was put back in the stack and somehow the card was put in the plastic bag	remembered	remembered	The volunteer signs a card which the magician subsequently pulls from a Ziploc bag.	5	remembered	remembered	remembered	remembered	remembered	remembered	remembered
551.995	3.999	21	01_H35_combined_small.mp4	fixationPostVid	not applicable	not applicable	not applicable	not applicable	not applicable	not applicable	not applicable	not applicable	not applicable	not applicable	not applicable	not applicable	not applicable	not applicable
555.994	6	21	01_H35_combined_small.mp4	displayAnswer	21 to 30	558.847780484997	not applicable	not applicable	not applicable	not applicable	not applicable	not applicable	not applicable	not applicable	not applicable	not applicable	not applicable	not applicable
561.995	0.049	21	01_H35_combined_small.mp4	fixationPostAnswer	not applicable	not applicable	not applicable	not applicable	not applicable	not applicable	not applicable	not applicable	not applicable	not applicable	not applicable	not applicable	not applicable	not applicable
562.044	5.951	21	01_H35_combined_small.mp4	displayCuriosity	3	565.259078095027	not applicable	not applicable	not applicable	not applicable	not applicable	not applicable	not applicable	not applicable	not applicable	not applicable	not applicable	not applicable
567.994	8	21	01_H35_combined_small.mp4	fixationPostCuriosity	not applicable	not applicable	not applicable	not applicable	not applicable	not applicable	not applicable	not applicable	not applicable	not applicable	not applicable	not applicable	not applicable	not applicable
577.993	6.031	22	20_Trick20_short_combined_small.mp4	displayMockVid	not applicable	not applicable	not applicable	not applicable	not applicable	not applicable	not applicable	not applicable	not applicable	not applicable	not applicable	not applicable	not applicable	not applicable
584.023	26.137	22	20_Trick20_short_combined_small.mp4	displayVid	not applicable	not applicable	the nut was put on the rope	forgotten	forgotten	The magician ties rope around the nut, but is not able to remove it afterwards as it seems that the nut has shrunk.	1	forgotten	forgotten	forgotten	forgotten	forgotten	forgotten	forgotten
611.992	4.001	22	20_Trick20_short_combined_small.mp4	fixationPostVid	not applicable	not applicable	not applicable	not applicable	not applicable	not applicable	not applicable	not applicable	not applicable	not applicable	not applicable	not applicable	not applicable	not applicable
615.993	6	22	20_Trick20_short_combined_small.mp4	displayAnswer	31 or more	617.815041469992	not applicable	not applicable	not applicable	not applicable	not applicable	not applicable	not applicable	not applicable	not applicable	not applicable	not applicable	not applicable
621.993	0.051	22	20_Trick20_short_combined_small.mp4	fixationPostAnswer	not applicable	not applicable	not applicable	not applicable	not applicable	not applicable	not applicable	not applicable	not applicable	not applicable	not applicable	not applicable	not applicable	not applicable
622.043	5.95	22	20_Trick20_short_combined_small.mp4	displayCuriosity	3	625.681687846023	not applicable	not applicable	not applicable	not applicable	not applicable	not applicable	not applicable	not applicable	not applicable	not applicable	not applicable	not applicable
627.994	4	22	20_Trick20_short_combined_small.mp4	fixationPostCuriosity	not applicable	not applicable	not applicable	not applicable	not applicable	not applicable	not applicable	not applicable	not applicable	not applicable	not applicable	not applicable	not applicable	not applicable
633.991	6.058	23	02_H10_combined_small.mp4	displayMockVid	not applicable	not applicable	not applicable	not applicable	not applicable	not applicable	not applicable	not applicable	not applicable	not applicable	not applicable	not applicable	not applicable	not applicable
640.049	30.826	23	02_H10_combined_small.mp4	displayVid	not applicable	not applicable	he cut up the 7 of hearts and reattached them	remembered	remembered	The magician is able to split and put back together a card.	4	forgotten	forgotten	forgotten	remembered	remembered	remembered	remembered
671.993	4	23	02_H10_combined_small.mp4	fixationPostVid	not applicable	not applicable	not applicable	not applicable	not applicable	not applicable	not applicable	not applicable	not applicable	not applicable	not applicable	not applicable	not applicable	not applicable
675.993	5.999	23	02_H10_combined_small.mp4	displayAnswer	21 to 30	677.002209583996	not applicable	not applicable	not applicable	not applicable	not applicable	not applicable	not applicable	not applicable	not applicable	not applicable	not applicable	not applicable
681.992	0.05	23	02_H10_combined_small.mp4	fixationPostAnswer	not applicable	not applicable	not applicable	not applicable	not applicable	not applicable	not applicable	not applicable	not applicable	not applicable	not applicable	not applicable	not applicable	not applicable
682.043	5.949	23	02_H10_combined_small.mp4	displayCuriosity	4	686.22860812099	not applicable	not applicable	not applicable	not applicable	not applicable	not applicable	not applicable	not applicable	not applicable	not applicable	not applicable	not applicable
687.992	4	23	02_H10_combined_small.mp4	fixationPostCuriosity	not applicable	not applicable	not applicable	not applicable	not applicable	not applicable	not applicable	not applicable	not applicable	not applicable	not applicable	not applicable	not applicable	not applicable
693.992	6.033	24	23_K10_combined_small.mp4	displayMockVid	not applicable	not applicable	not applicable	not applicable	not applicable	not applicable	not applicable	not applicable	not applicable	not applicable	not applicable	not applicable	not applicable	not applicable
700.025	23.418	24	23_K10_combined_small.mp4	displayVid	not applicable	not applicable	the paperclips were connected using seemingly nothing but I think he intertwined hem using the metal coil on the paperclip	remembered	remembered	The safety pins magically interlock without breaking the seal.	5	remembered	remembered	remembered	remembered	remembered	remembered	remembered
723.992	9.999	24	23_K10_combined_small.mp4	fixationPostVid	not applicable	not applicable	not applicable	not applicable	not applicable	not applicable	not applicable	not applicable	not applicable	not applicable	not applicable	not applicable	not applicable	not applicable
733.992	6	24	23_K10_combined_small.mp4	displayAnswer	31 or more	734.465733826975	not applicable	not applicable	not applicable	not applicable	not applicable	not applicable	not applicable	not applicable	not applicable	not applicable	not applicable	not applicable
739.992	0.049	24	23_K10_combined_small.mp4	fixationPostAnswer	not applicable	not applicable	not applicable	not applicable	not applicable	not applicable	not applicable	not applicable	not applicable	not applicable	not applicable	not applicable	not applicable	not applicable
740.042	5.947	24	23_K10_combined_small.mp4	displayCuriosity	6	743.31350468297	not applicable	not applicable	not applicable	not applicable	not applicable	not applicable	not applicable	not applicable	not applicable	not applicable	not applicable	not applicable
745.988	4.003	24	23_K10_combined_small.mp4	fixationPostCuriosity	not applicable	not applicable	not applicable	not applicable	not applicable	not applicable	not applicable	not applicable	not applicable	not applicable	not applicable	not applicable	not applicable	not applicable
