onset	duration	trial	stim_file	event	response	response_timestamp	response_recall	trial_type_cuedRecallStrict	trial_type_cuedRecallLenient	response_recognition	response_confidence	trial_type_allConf	trial_type_highConf	trial_type_aboveAvgConf	trial_type_rememberedStrictAboveAvg	trial_type_rememberedLenientAboveAvg	trial_type_rememberedStrictHigh	trial_type_rememberedLenientHigh
2.001	6.046	25	20_Trick20_short_combined_small.mp4	displayMockVid	not applicable	not applicable	not applicable	not applicable	not applicable	not applicable	not applicable	not applicable	not applicable	not applicable	not applicable	not applicable	not applicable	not applicable
8.047	26.133	25	20_Trick20_short_combined_small.mp4	displayVid	not applicable	not applicable	no recall	forgotten	forgotten	The volunteer holds the nut in her hands which are then tied with the rope. When the magician removes the rope, the nut is no longer in the volunteer's hand but appears in the magician's pocket.	1	forgotten	forgotten	forgotten	forgotten	forgotten	forgotten	forgotten
35.999	4.001	25	20_Trick20_short_combined_small.mp4	fixationPostVid	not applicable	not applicable	not applicable	not applicable	not applicable	not applicable	not applicable	not applicable	not applicable	not applicable	not applicable	not applicable	not applicable	not applicable
40	6	25	20_Trick20_short_combined_small.mp4	displayAnswer	0 to 10	41.1918976150009	not applicable	not applicable	not applicable	not applicable	not applicable	not applicable	not applicable	not applicable	not applicable	not applicable	not applicable	not applicable
45.999	0.05	25	20_Trick20_short_combined_small.mp4	fixationPostAnswer	not applicable	not applicable	not applicable	not applicable	not applicable	not applicable	not applicable	not applicable	not applicable	not applicable	not applicable	not applicable	not applicable	not applicable
46.05	5.95	25	20_Trick20_short_combined_small.mp4	displayCuriosity	6	47.7881496830014	not applicable	not applicable	not applicable	not applicable	not applicable	not applicable	not applicable	not applicable	not applicable	not applicable	not applicable	not applicable
51.999	7.999	25	20_Trick20_short_combined_small.mp4	fixationPostCuriosity	not applicable	not applicable	not applicable	not applicable	not applicable	not applicable	not applicable	not applicable	not applicable	not applicable	not applicable	not applicable	not applicable	not applicable
61.999	6.035	26	10_S27_combined_small.mp4	displayMockVid	not applicable	not applicable	not applicable	not applicable	not applicable	not applicable	not applicable	not applicable	not applicable	not applicable	not applicable	not applicable	not applicable	not applicable
68.034	31.575	26	10_S27_combined_small.mp4	displayVid	not applicable	not applicable	no recall	forgotten	forgotten	The magician pours water into a cup from the bottle and then pours the water into another cup but when he tips it upside down, no water spills out.	4	remembered	remembered	remembered	remembered	remembered	remembered	remembered
99.994	4.003	26	10_S27_combined_small.mp4	fixationPostVid	not applicable	not applicable	not applicable	not applicable	not applicable	not applicable	not applicable	not applicable	not applicable	not applicable	not applicable	not applicable	not applicable	not applicable
103.997	6.002	26	10_S27_combined_small.mp4	displayAnswer	0 to 10	106.220459837001	not applicable	not applicable	not applicable	not applicable	not applicable	not applicable	not applicable	not applicable	not applicable	not applicable	not applicable	not applicable
109.999	0.049	26	10_S27_combined_small.mp4	fixationPostAnswer	not applicable	not applicable	not applicable	not applicable	not applicable	not applicable	not applicable	not applicable	not applicable	not applicable	not applicable	not applicable	not applicable	not applicable
110.048	5.951	26	10_S27_combined_small.mp4	displayCuriosity	5	112.423955294002	not applicable	not applicable	not applicable	not applicable	not applicable	not applicable	not applicable	not applicable	not applicable	not applicable	not applicable	not applicable
115.999	4	26	10_S27_combined_small.mp4	fixationPostCuriosity	not applicable	not applicable	not applicable	not applicable	not applicable	not applicable	not applicable	not applicable	not applicable	not applicable	not applicable	not applicable	not applicable	not applicable
121.993	6.024	27	23_K10_combined_small.mp4	displayMockVid	not applicable	not applicable	not applicable	not applicable	not applicable	not applicable	not applicable	not applicable	not applicable	not applicable	not applicable	not applicable	not applicable	not applicable
128.018	23.428	27	23_K10_combined_small.mp4	displayVid	not applicable	not applicable	Hits the two paperclips together joining them without opening the clip	remembered	remembered	The safety pins magically interlock without breaking the seal.	6	remembered	remembered	remembered	remembered	remembered	remembered	remembered
151.999	4	27	23_K10_combined_small.mp4	fixationPostVid	not applicable	not applicable	not applicable	not applicable	not applicable	not applicable	not applicable	not applicable	not applicable	not applicable	not applicable	not applicable	not applicable	not applicable
155.999	5.999	27	23_K10_combined_small.mp4	displayAnswer	11 to 20	157.050002759999	not applicable	not applicable	not applicable	not applicable	not applicable	not applicable	not applicable	not applicable	not applicable	not applicable	not applicable	not applicable
161.998	0.05	27	23_K10_combined_small.mp4	fixationPostAnswer	not applicable	not applicable	not applicable	not applicable	not applicable	not applicable	not applicable	not applicable	not applicable	not applicable	not applicable	not applicable	not applicable	not applicable
162.048	5.945	27	23_K10_combined_small.mp4	displayCuriosity	4	163.41118494	not applicable	not applicable	not applicable	not applicable	not applicable	not applicable	not applicable	not applicable	not applicable	not applicable	not applicable	not applicable
167.993	4.003	27	23_K10_combined_small.mp4	fixationPostCuriosity	not applicable	not applicable	not applicable	not applicable	not applicable	not applicable	not applicable	not applicable	not applicable	not applicable	not applicable	not applicable	not applicable	not applicable
173.998	6.035	28	32_K16_short_combined_small.mp4	displayMockVid	not applicable	not applicable	not applicable	not applicable	not applicable	not applicable	not applicable	not applicable	not applicable	not applicable	not applicable	not applicable	not applicable	not applicable
180.034	31.412	28	32_K16_short_combined_small.mp4	displayVid	not applicable	not applicable	no recall	forgotten	forgotten	The volunteer selects and signs a card that is placed in the middle of the deck, but then appears on the top of it.	3	remembered	forgotten	forgotten	forgotten	forgotten	forgotten	forgotten
211.992	4.005	28	32_K16_short_combined_small.mp4	fixationPostVid	not applicable	not applicable	not applicable	not applicable	not applicable	not applicable	not applicable	not applicable	not applicable	not applicable	not applicable	not applicable	not applicable	not applicable
215.996	6.001	28	32_K16_short_combined_small.mp4	displayAnswer	11 to 20	217.182423857001	not applicable	not applicable	not applicable	not applicable	not applicable	not applicable	not applicable	not applicable	not applicable	not applicable	not applicable	not applicable
221.997	0.05	28	32_K16_short_combined_small.mp4	fixationPostAnswer	not applicable	not applicable	not applicable	not applicable	not applicable	not applicable	not applicable	not applicable	not applicable	not applicable	not applicable	not applicable	not applicable	not applicable
222.048	5.95	28	32_K16_short_combined_small.mp4	displayCuriosity	4	223.370341958002	not applicable	not applicable	not applicable	not applicable	not applicable	not applicable	not applicable	not applicable	not applicable	not applicable	not applicable	not applicable
227.997	4	28	32_K16_short_combined_small.mp4	fixationPostCuriosity	not applicable	not applicable	not applicable	not applicable	not applicable	not applicable	not applicable	not applicable	not applicable	not applicable	not applicable	not applicable	not applicable	not applicable
233.991	6.039	29	34_Trick38_combined_small.mp4	displayMockVid	not applicable	not applicable	not applicable	not applicable	not applicable	not applicable	not applicable	not applicable	not applicable	not applicable	not applicable	not applicable	not applicable	not applicable
240.03	27.415	29	34_Trick38_combined_small.mp4	displayVid	not applicable	not applicable	no recall	forgotten	forgotten	The magician closes one fist around a silk handkerchief and makes it disappear. Then, he makes it appear in his other hand.	1	remembered	forgotten	forgotten	forgotten	forgotten	forgotten	forgotten
267.997	6	29	34_Trick38_combined_small.mp4	fixationPostVid	not applicable	not applicable	not applicable	not applicable	not applicable	not applicable	not applicable	not applicable	not applicable	not applicable	not applicable	not applicable	not applicable	not applicable
273.997	5.999	29	34_Trick38_combined_small.mp4	displayAnswer	31 or more	274.676092616999	not applicable	not applicable	not applicable	not applicable	not applicable	not applicable	not applicable	not applicable	not applicable	not applicable	not applicable	not applicable
279.997	0.05	29	34_Trick38_combined_small.mp4	fixationPostAnswer	not applicable	not applicable	not applicable	not applicable	not applicable	not applicable	not applicable	not applicable	not applicable	not applicable	not applicable	not applicable	not applicable	not applicable
280.046	5.949	29	34_Trick38_combined_small.mp4	displayCuriosity	2	282.111721124998	not applicable	not applicable	not applicable	not applicable	not applicable	not applicable	not applicable	not applicable	not applicable	not applicable	not applicable	not applicable
285.995	4.002	29	34_Trick38_combined_small.mp4	fixationPostCuriosity	not applicable	not applicable	not applicable	not applicable	not applicable	not applicable	not applicable	not applicable	not applicable	not applicable	not applicable	not applicable	not applicable	not applicable
291.996	6.036	30	05_K4_combined_small.mp4	displayMockVid	not applicable	not applicable	not applicable	not applicable	not applicable	not applicable	not applicable	not applicable	not applicable	not applicable	not applicable	not applicable	not applicable	not applicable
298.032	31.178	30	05_K4_combined_small.mp4	displayVid	not applicable	not applicable	wipes hand over faces of the rubiks cube solving the cube without rotating pieces	remembered	remembered	The magician solves the rubix cube by spinning it in the air.	5	remembered	remembered	remembered	remembered	remembered	remembered	remembered
329.993	4.005	30	05_K4_combined_small.mp4	fixationPostVid	not applicable	not applicable	not applicable	not applicable	not applicable	not applicable	not applicable	not applicable	not applicable	not applicable	not applicable	not applicable	not applicable	not applicable
333.998	5.998	30	05_K4_combined_small.mp4	displayAnswer	11 to 20	336.121259907999	not applicable	not applicable	not applicable	not applicable	not applicable	not applicable	not applicable	not applicable	not applicable	not applicable	not applicable	not applicable
339.996	0.049	30	05_K4_combined_small.mp4	fixationPostAnswer	not applicable	not applicable	not applicable	not applicable	not applicable	not applicable	not applicable	not applicable	not applicable	not applicable	not applicable	not applicable	not applicable	not applicable
340.045	5.951	30	05_K4_combined_small.mp4	displayCuriosity	4	342.30322528	not applicable	not applicable	not applicable	not applicable	not applicable	not applicable	not applicable	not applicable	not applicable	not applicable	not applicable	not applicable
345.996	4	30	05_K4_combined_small.mp4	fixationPostCuriosity	not applicable	not applicable	not applicable	not applicable	not applicable	not applicable	not applicable	not applicable	not applicable	not applicable	not applicable	not applicable	not applicable	not applicable
351.992	6.022	31	31_K3_combined_small.mp4	displayMockVid	not applicable	not applicable	not applicable	not applicable	not applicable	not applicable	not applicable	not applicable	not applicable	not applicable	not applicable	not applicable	not applicable	not applicable
358.014	25.901	31	31_K3_combined_small.mp4	displayVid	not applicable	not applicable	makes ladybirds appear on the leaf 	remembered	remembered	The magician makes ladybirds appear and then disappear again.	6	remembered	remembered	remembered	remembered	remembered	remembered	remembered
383.995	4	31	31_K3_combined_small.mp4	fixationPostVid	not applicable	not applicable	not applicable	not applicable	not applicable	not applicable	not applicable	not applicable	not applicable	not applicable	not applicable	not applicable	not applicable	not applicable
387.995	6	31	31_K3_combined_small.mp4	displayAnswer	0 to 10	390.485805509001	not applicable	not applicable	not applicable	not applicable	not applicable	not applicable	not applicable	not applicable	not applicable	not applicable	not applicable	not applicable
393.995	0.05	31	31_K3_combined_small.mp4	fixationPostAnswer	not applicable	not applicable	not applicable	not applicable	not applicable	not applicable	not applicable	not applicable	not applicable	not applicable	not applicable	not applicable	not applicable	not applicable
394.045	5.949	31	31_K3_combined_small.mp4	displayCuriosity	6	396.278970855001	not applicable	not applicable	not applicable	not applicable	not applicable	not applicable	not applicable	not applicable	not applicable	not applicable	not applicable	not applicable
399.994	8.001	31	31_K3_combined_small.mp4	fixationPostCuriosity	not applicable	not applicable	not applicable	not applicable	not applicable	not applicable	not applicable	not applicable	not applicable	not applicable	not applicable	not applicable	not applicable	not applicable
409.995	6.028	32	18_Trick4_combined_small.mp4	displayMockVid	not applicable	not applicable	not applicable	not applicable	not applicable	not applicable	not applicable	not applicable	not applicable	not applicable	not applicable	not applicable	not applicable	not applicable
416.023	47.816	32	18_Trick4_combined_small.mp4	displayVid	not applicable	not applicable	makes mobile phone appear inside the balloon when it deflates	remembered	remembered	The magician puts the mobile phone inside the balloon with a simple gesture of his hands.	5	remembered	remembered	remembered	remembered	remembered	remembered	remembered
463.991	4.001	32	18_Trick4_combined_small.mp4	fixationPostVid	not applicable	not applicable	not applicable	not applicable	not applicable	not applicable	not applicable	not applicable	not applicable	not applicable	not applicable	not applicable	not applicable	not applicable
467.992	6.002	32	18_Trick4_combined_small.mp4	displayAnswer	21 to 30	468.981914765001	not applicable	not applicable	not applicable	not applicable	not applicable	not applicable	not applicable	not applicable	not applicable	not applicable	not applicable	not applicable
473.994	0.05	32	18_Trick4_combined_small.mp4	fixationPostAnswer	not applicable	not applicable	not applicable	not applicable	not applicable	not applicable	not applicable	not applicable	not applicable	not applicable	not applicable	not applicable	not applicable	not applicable
474.044	5.95	32	18_Trick4_combined_small.mp4	displayCuriosity	3	475.350403830998	not applicable	not applicable	not applicable	not applicable	not applicable	not applicable	not applicable	not applicable	not applicable	not applicable	not applicable	not applicable
479.994	4	32	18_Trick4_combined_small.mp4	fixationPostCuriosity	not applicable	not applicable	not applicable	not applicable	not applicable	not applicable	not applicable	not applicable	not applicable	not applicable	not applicable	not applicable	not applicable	not applicable
485.988	6.025	33	13_Trick6_short_combined_small.mp4	displayMockVid	not applicable	not applicable	not applicable	not applicable	not applicable	not applicable	not applicable	not applicable	not applicable	not applicable	not applicable	not applicable	not applicable	not applicable
492.013	37.659	33	13_Trick6_short_combined_small.mp4	displayVid	not applicable	not applicable	no recall	forgotten	forgotten	The magician puts a ball under the cup, which then turns into a larger ball and then becomes an egg.	1	remembered	forgotten	forgotten	forgotten	forgotten	forgotten	forgotten
529.988	4.004	33	13_Trick6_short_combined_small.mp4	fixationPostVid	not applicable	not applicable	not applicable	not applicable	not applicable	not applicable	not applicable	not applicable	not applicable	not applicable	not applicable	not applicable	not applicable	not applicable
533.992	6.001	33	13_Trick6_short_combined_small.mp4	displayAnswer	0 to 10	536.283231457001	not applicable	not applicable	not applicable	not applicable	not applicable	not applicable	not applicable	not applicable	not applicable	not applicable	not applicable	not applicable
539.993	0.05	33	13_Trick6_short_combined_small.mp4	fixationPostAnswer	not applicable	not applicable	not applicable	not applicable	not applicable	not applicable	not applicable	not applicable	not applicable	not applicable	not applicable	not applicable	not applicable	not applicable
540.043	5.95	33	13_Trick6_short_combined_small.mp4	displayCuriosity	6	541.968459869	not applicable	not applicable	not applicable	not applicable	not applicable	not applicable	not applicable	not applicable	not applicable	not applicable	not applicable	not applicable
545.993	4	33	13_Trick6_short_combined_small.mp4	fixationPostCuriosity	not applicable	not applicable	not applicable	not applicable	not applicable	not applicable	not applicable	not applicable	not applicable	not applicable	not applicable	not applicable	not applicable	not applicable
551.986	6.04	34	08_S12_combined_small.mp4	displayMockVid	not applicable	not applicable	not applicable	not applicable	not applicable	not applicable	not applicable	not applicable	not applicable	not applicable	not applicable	not applicable	not applicable	not applicable
558.026	41.895	34	08_S12_combined_small.mp4	displayVid	not applicable	not applicable	punches a hole in the card and moves it around the card to the opposite corner then removes the hole leaving the card as new	remembered	remembered	The magician punches a hole in the card. He then moves the hole from one corner to another before finally revealing that it is actually a black spot on the card.	6	remembered	remembered	remembered	remembered	remembered	remembered	remembered
599.99	4.002	34	08_S12_combined_small.mp4	fixationPostVid	not applicable	not applicable	not applicable	not applicable	not applicable	not applicable	not applicable	not applicable	not applicable	not applicable	not applicable	not applicable	not applicable	not applicable
603.991	6.001	34	08_S12_combined_small.mp4	displayAnswer	21 to 30	606.098119601	not applicable	not applicable	not applicable	not applicable	not applicable	not applicable	not applicable	not applicable	not applicable	not applicable	not applicable	not applicable
609.992	0.049	34	08_S12_combined_small.mp4	fixationPostAnswer	not applicable	not applicable	not applicable	not applicable	not applicable	not applicable	not applicable	not applicable	not applicable	not applicable	not applicable	not applicable	not applicable	not applicable
610.041	5.951	34	08_S12_combined_small.mp4	displayCuriosity	5	611.723714471998	not applicable	not applicable	not applicable	not applicable	not applicable	not applicable	not applicable	not applicable	not applicable	not applicable	not applicable	not applicable
615.992	9.998	34	08_S12_combined_small.mp4	fixationPostCuriosity	not applicable	not applicable	not applicable	not applicable	not applicable	not applicable	not applicable	not applicable	not applicable	not applicable	not applicable	not applicable	not applicable	not applicable
627.991	6.036	35	19_H17_combined_small.mp4	displayMockVid	not applicable	not applicable	not applicable	not applicable	not applicable	not applicable	not applicable	not applicable	not applicable	not applicable	not applicable	not applicable	not applicable	not applicable
634.027	46.6	35	19_H17_combined_small.mp4	displayVid	not applicable	not applicable	uses guillotine and break sticks to demonstrate it cuts them in half audience member puts her finger in the guillotine but is left unharmed	remembered	remembered	The magician uses a guillotine to slice breadsticks, but not the volunteer's finger.	6	remembered	remembered	remembered	remembered	remembered	remembered	remembered
681.993	3.998	35	19_H17_combined_small.mp4	fixationPostVid	not applicable	not applicable	not applicable	not applicable	not applicable	not applicable	not applicable	not applicable	not applicable	not applicable	not applicable	not applicable	not applicable	not applicable
685.991	5.997	35	19_H17_combined_small.mp4	displayAnswer	11 to 20	687.985804358999	not applicable	not applicable	not applicable	not applicable	not applicable	not applicable	not applicable	not applicable	not applicable	not applicable	not applicable	not applicable
691.988	0.05	35	19_H17_combined_small.mp4	fixationPostAnswer	not applicable	not applicable	not applicable	not applicable	not applicable	not applicable	not applicable	not applicable	not applicable	not applicable	not applicable	not applicable	not applicable	not applicable
692.037	5.953	35	19_H17_combined_small.mp4	displayCuriosity	2	693.426009500999	not applicable	not applicable	not applicable	not applicable	not applicable	not applicable	not applicable	not applicable	not applicable	not applicable	not applicable	not applicable
697.99	4	35	19_H17_combined_small.mp4	fixationPostCuriosity	not applicable	not applicable	not applicable	not applicable	not applicable	not applicable	not applicable	not applicable	not applicable	not applicable	not applicable	not applicable	not applicable	not applicable
703.991	6.028	36	07_K2_combined_small.mp4	displayMockVid	not applicable	not applicable	not applicable	not applicable	not applicable	not applicable	not applicable	not applicable	not applicable	not applicable	not applicable	not applicable	not applicable	not applicable
710.019	27.215	36	07_K2_combined_small.mp4	displayVid	not applicable	not applicable	opens book to reveal images of candy makes candy fall from the book then opens book again to reveal the images have gone	remembered	remembered	The sweets shown on the pages disappear.	5	forgotten	forgotten	forgotten	remembered	remembered	remembered	remembered
737.988	10.003	36	07_K2_combined_small.mp4	fixationPostVid	not applicable	not applicable	not applicable	not applicable	not applicable	not applicable	not applicable	not applicable	not applicable	not applicable	not applicable	not applicable	not applicable	not applicable
747.991	6	36	07_K2_combined_small.mp4	displayAnswer	0 to 10	748.832124289002	not applicable	not applicable	not applicable	not applicable	not applicable	not applicable	not applicable	not applicable	not applicable	not applicable	not applicable	not applicable
753.99	0.049	36	07_K2_combined_small.mp4	fixationPostAnswer	not applicable	not applicable	not applicable	not applicable	not applicable	not applicable	not applicable	not applicable	not applicable	not applicable	not applicable	not applicable	not applicable	not applicable
754.04	5.947	36	07_K2_combined_small.mp4	displayCuriosity	6	756.761845001001	not applicable	not applicable	not applicable	not applicable	not applicable	not applicable	not applicable	not applicable	not applicable	not applicable	not applicable	not applicable
759.987	4.003	36	07_K2_combined_small.mp4	fixationPostCuriosity	not applicable	not applicable	not applicable	not applicable	not applicable	not applicable	not applicable	not applicable	not applicable	not applicable	not applicable	not applicable	not applicable	not applicable
