onset	duration	trial	stim_file	event	response	response_timestamp	response_recall	trial_type_cuedRecallStrict	trial_type_cuedRecallLenient	response_recognition	response_confidence	trial_type_allConf	trial_type_highConf	trial_type_aboveAvgConf	trial_type_rememberedStrictAboveAvg	trial_type_rememberedLenientAboveAvg	trial_type_rememberedStrictHigh	trial_type_rememberedLenientHigh
2	6.003	13	03_H16_combined_small.mp4	displayMockVid	not applicable	not applicable	not applicable	not applicable	not applicable	not applicable	not applicable	not applicable	not applicable	not applicable	not applicable	not applicable	not applicable	not applicable
8.003	33.65	13	03_H16_combined_small.mp4	displayVid	not applicable	not applicable	Pours what is an empty can into the glass i think	remembered	remembered	The magician pours coke into a glass from an empty can.	6	remembered	remembered	remembered	remembered	remembered	remembered	remembered
42	6.001	13	03_H16_combined_small.mp4	fixationPostVid	not applicable	not applicable	not applicable	not applicable	not applicable	not applicable	not applicable	not applicable	not applicable	not applicable	not applicable	not applicable	not applicable	not applicable
48.001	5.998	13	03_H16_combined_small.mp4	displayAnswer	0 to 10	49.4244318230194	not applicable	not applicable	not applicable	not applicable	not applicable	not applicable	not applicable	not applicable	not applicable	not applicable	not applicable	not applicable
54	0.05	13	03_H16_combined_small.mp4	fixationPostAnswer	not applicable	not applicable	not applicable	not applicable	not applicable	not applicable	not applicable	not applicable	not applicable	not applicable	not applicable	not applicable	not applicable	not applicable
54.05	5.946	13	03_H16_combined_small.mp4	displayCuriosity	3	58.3841493150103	not applicable	not applicable	not applicable	not applicable	not applicable	not applicable	not applicable	not applicable	not applicable	not applicable	not applicable	not applicable
59.996	4.003	13	03_H16_combined_small.mp4	fixationPostCuriosity	not applicable	not applicable	not applicable	not applicable	not applicable	not applicable	not applicable	not applicable	not applicable	not applicable	not applicable	not applicable	not applicable	not applicable
66	6.002	14	26_S30_combined_small.mp4	displayMockVid	not applicable	not applicable	not applicable	not applicable	not applicable	not applicable	not applicable	not applicable	not applicable	not applicable	not applicable	not applicable	not applicable	not applicable
72.002	25.204	14	26_S30_combined_small.mp4	displayVid	not applicable	not applicable	No recall	forgotten	forgotten	The magician is able to join the two separated parts of the stick.	3	forgotten	forgotten	forgotten	forgotten	forgotten	forgotten	forgotten
98.001	3.998	14	26_S30_combined_small.mp4	fixationPostVid	not applicable	not applicable	not applicable	not applicable	not applicable	not applicable	not applicable	not applicable	not applicable	not applicable	not applicable	not applicable	not applicable	not applicable
101.999	5.999	14	26_S30_combined_small.mp4	displayAnswer	0 to 10	104.299748654012	not applicable	not applicable	not applicable	not applicable	not applicable	not applicable	not applicable	not applicable	not applicable	not applicable	not applicable	not applicable
107.998	0.049	14	26_S30_combined_small.mp4	fixationPostAnswer	not applicable	not applicable	not applicable	not applicable	not applicable	not applicable	not applicable	not applicable	not applicable	not applicable	not applicable	not applicable	not applicable	not applicable
108.048	5.952	14	26_S30_combined_small.mp4	displayCuriosity	3	112.857343572017	not applicable	not applicable	not applicable	not applicable	not applicable	not applicable	not applicable	not applicable	not applicable	not applicable	not applicable	not applicable
114	4	14	26_S30_combined_small.mp4	fixationPostCuriosity	not applicable	not applicable	not applicable	not applicable	not applicable	not applicable	not applicable	not applicable	not applicable	not applicable	not applicable	not applicable	not applicable	not applicable
120	6.034	15	06_H7_combined_small.mp4	displayMockVid	not applicable	not applicable	not applicable	not applicable	not applicable	not applicable	not applicable	not applicable	not applicable	not applicable	not applicable	not applicable	not applicable	not applicable
126.034	33.853	15	06_H7_combined_small.mp4	displayVid	not applicable	not applicable	No recall	forgotten	forgotten	The magician wraps the salt shaker in the cloth and makes it disappear.	4	forgotten	forgotten	forgotten	forgotten	forgotten	forgotten	forgotten
160.002	9.997	15	06_H7_combined_small.mp4	fixationPostVid	not applicable	not applicable	not applicable	not applicable	not applicable	not applicable	not applicable	not applicable	not applicable	not applicable	not applicable	not applicable	not applicable	not applicable
169.999	5.997	15	06_H7_combined_small.mp4	displayAnswer	0 to 10	171.830369492003	not applicable	not applicable	not applicable	not applicable	not applicable	not applicable	not applicable	not applicable	not applicable	not applicable	not applicable	not applicable
175.997	0.049	15	06_H7_combined_small.mp4	fixationPostAnswer	not applicable	not applicable	not applicable	not applicable	not applicable	not applicable	not applicable	not applicable	not applicable	not applicable	not applicable	not applicable	not applicable	not applicable
176.046	5.952	15	06_H7_combined_small.mp4	displayCuriosity	4	180.221193823003	not applicable	not applicable	not applicable	not applicable	not applicable	not applicable	not applicable	not applicable	not applicable	not applicable	not applicable	not applicable
181.998	4	15	06_H7_combined_small.mp4	fixationPostCuriosity	not applicable	not applicable	not applicable	not applicable	not applicable	not applicable	not applicable	not applicable	not applicable	not applicable	not applicable	not applicable	not applicable	not applicable
187.998	6.029	16	30_H15_combined_small.mp4	displayMockVid	not applicable	not applicable	not applicable	not applicable	not applicable	not applicable	not applicable	not applicable	not applicable	not applicable	not applicable	not applicable	not applicable	not applicable
194.027	31.908	16	30_H15_combined_small.mp4	displayVid	not applicable	not applicable	No recall	forgotten	forgotten	The magician pierces the deck of cards with a toothpick, but afterwards there is no hole.	4	forgotten	forgotten	forgotten	forgotten	forgotten	forgotten	forgotten
226.001	3.996	16	30_H15_combined_small.mp4	fixationPostVid	not applicable	not applicable	not applicable	not applicable	not applicable	not applicable	not applicable	not applicable	not applicable	not applicable	not applicable	not applicable	not applicable	not applicable
229.998	6	16	30_H15_combined_small.mp4	displayAnswer	21 to 30	231.712417374016	not applicable	not applicable	not applicable	not applicable	not applicable	not applicable	not applicable	not applicable	not applicable	not applicable	not applicable	not applicable
235.998	0.049	16	30_H15_combined_small.mp4	fixationPostAnswer	not applicable	not applicable	not applicable	not applicable	not applicable	not applicable	not applicable	not applicable	not applicable	not applicable	not applicable	not applicable	not applicable	not applicable
236.047	5.946	16	30_H15_combined_small.mp4	displayCuriosity	5	238.134100924013	not applicable	not applicable	not applicable	not applicable	not applicable	not applicable	not applicable	not applicable	not applicable	not applicable	not applicable	not applicable
241.993	4.003	16	30_H15_combined_small.mp4	fixationPostCuriosity	not applicable	not applicable	not applicable	not applicable	not applicable	not applicable	not applicable	not applicable	not applicable	not applicable	not applicable	not applicable	not applicable	not applicable
247.998	6.034	17	25_S25_combined_small.mp4	displayMockVid	not applicable	not applicable	not applicable	not applicable	not applicable	not applicable	not applicable	not applicable	not applicable	not applicable	not applicable	not applicable	not applicable	not applicable
254.032	52.663	17	25_S25_combined_small.mp4	displayVid	not applicable	not applicable	No recall	forgotten	forgotten	The magician makes a silk handkerchief appear inside a bread roll.	3	remembered	forgotten	forgotten	forgotten	forgotten	forgotten	forgotten
307.997	3.996	17	25_S25_combined_small.mp4	fixationPostVid	not applicable	not applicable	not applicable	not applicable	not applicable	not applicable	not applicable	not applicable	not applicable	not applicable	not applicable	not applicable	not applicable	not applicable
311.994	6.005	17	25_S25_combined_small.mp4	displayAnswer	11 to 20	312.441220412002	not applicable	not applicable	not applicable	not applicable	not applicable	not applicable	not applicable	not applicable	not applicable	not applicable	not applicable	not applicable
317.998	0.048	17	25_S25_combined_small.mp4	fixationPostAnswer	not applicable	not applicable	not applicable	not applicable	not applicable	not applicable	not applicable	not applicable	not applicable	not applicable	not applicable	not applicable	not applicable	not applicable
318.046	5.95	17	25_S25_combined_small.mp4	displayCuriosity	5	320.329003824998	not applicable	not applicable	not applicable	not applicable	not applicable	not applicable	not applicable	not applicable	not applicable	not applicable	not applicable	not applicable
323.997	4	17	25_S25_combined_small.mp4	fixationPostCuriosity	not applicable	not applicable	not applicable	not applicable	not applicable	not applicable	not applicable	not applicable	not applicable	not applicable	not applicable	not applicable	not applicable	not applicable
329.99	6.04	18	32_K16_short_combined_small.mp4	displayMockVid	not applicable	not applicable	not applicable	not applicable	not applicable	not applicable	not applicable	not applicable	not applicable	not applicable	not applicable	not applicable	not applicable	not applicable
336.03	31.42	18	32_K16_short_combined_small.mp4	displayVid	not applicable	not applicable	No recall	forgotten	forgotten	The volunteer selects and signs a card that is placed in the middle of the deck, but then appears on the top of it.	3	remembered	forgotten	forgotten	forgotten	forgotten	forgotten	forgotten
367.996	4.001	18	32_K16_short_combined_small.mp4	fixationPostVid	not applicable	not applicable	not applicable	not applicable	not applicable	not applicable	not applicable	not applicable	not applicable	not applicable	not applicable	not applicable	not applicable	not applicable
371.997	5.999	18	32_K16_short_combined_small.mp4	displayAnswer	21 to 30	373.820663274004	not applicable	not applicable	not applicable	not applicable	not applicable	not applicable	not applicable	not applicable	not applicable	not applicable	not applicable	not applicable
377.996	0.046	18	32_K16_short_combined_small.mp4	fixationPostAnswer	not applicable	not applicable	not applicable	not applicable	not applicable	not applicable	not applicable	not applicable	not applicable	not applicable	not applicable	not applicable	not applicable	not applicable
378.041	5.955	18	32_K16_short_combined_small.mp4	displayCuriosity	2	379.824451121007	not applicable	not applicable	not applicable	not applicable	not applicable	not applicable	not applicable	not applicable	not applicable	not applicable	not applicable	not applicable
383.996	3.999	18	32_K16_short_combined_small.mp4	fixationPostCuriosity	not applicable	not applicable	not applicable	not applicable	not applicable	not applicable	not applicable	not applicable	not applicable	not applicable	not applicable	not applicable	not applicable	not applicable
389.996	6.027	19	18_Trick4_combined_small.mp4	displayMockVid	not applicable	not applicable	not applicable	not applicable	not applicable	not applicable	not applicable	not applicable	not applicable	not applicable	not applicable	not applicable	not applicable	not applicable
396.023	47.825	19	18_Trick4_combined_small.mp4	displayVid	not applicable	not applicable	There is something in the baloon	forgotten	remembered	As the balloon deflates, the phones starts moving across the surface without the magician touching it.	4	forgotten	forgotten	forgotten	forgotten	remembered	forgotten	remembered
443.99	8.005	19	18_Trick4_combined_small.mp4	fixationPostVid	not applicable	not applicable	not applicable	not applicable	not applicable	not applicable	not applicable	not applicable	not applicable	not applicable	not applicable	not applicable	not applicable	not applicable
451.995	6	19	18_Trick4_combined_small.mp4	displayAnswer	0 to 10	452.401134786021	not applicable	not applicable	not applicable	not applicable	not applicable	not applicable	not applicable	not applicable	not applicable	not applicable	not applicable	not applicable
457.995	0.05	19	18_Trick4_combined_small.mp4	fixationPostAnswer	not applicable	not applicable	not applicable	not applicable	not applicable	not applicable	not applicable	not applicable	not applicable	not applicable	not applicable	not applicable	not applicable	not applicable
458.045	5.95	19	18_Trick4_combined_small.mp4	displayCuriosity	7	460.216685756022	not applicable	not applicable	not applicable	not applicable	not applicable	not applicable	not applicable	not applicable	not applicable	not applicable	not applicable	not applicable
463.994	3.996	19	18_Trick4_combined_small.mp4	fixationPostCuriosity	not applicable	not applicable	not applicable	not applicable	not applicable	not applicable	not applicable	not applicable	not applicable	not applicable	not applicable	not applicable	not applicable	not applicable
469.99	6.006	20	12_H37_combined_small.mp4	displayMockVid	not applicable	not applicable	not applicable	not applicable	not applicable	not applicable	not applicable	not applicable	not applicable	not applicable	not applicable	not applicable	not applicable	not applicable
475.996	28.806	20	12_H37_combined_small.mp4	displayVid	not applicable	not applicable	No recall	forgotten	forgotten	The magician detaches his thumb, but when he turns his hands, the thumb is reattached.	3	forgotten	forgotten	forgotten	forgotten	forgotten	forgotten	forgotten
505.996	3.999	20	12_H37_combined_small.mp4	fixationPostVid	not applicable	not applicable	not applicable	not applicable	not applicable	not applicable	not applicable	not applicable	not applicable	not applicable	not applicable	not applicable	not applicable	not applicable
509.995	5.998	20	12_H37_combined_small.mp4	displayAnswer	11 to 20	512.134138226014	not applicable	not applicable	not applicable	not applicable	not applicable	not applicable	not applicable	not applicable	not applicable	not applicable	not applicable	not applicable
515.992	0.049	20	12_H37_combined_small.mp4	fixationPostAnswer	not applicable	not applicable	not applicable	not applicable	not applicable	not applicable	not applicable	not applicable	not applicable	not applicable	not applicable	not applicable	not applicable	not applicable
516.041	5.953	20	12_H37_combined_small.mp4	displayCuriosity	6	518.625378611003	not applicable	not applicable	not applicable	not applicable	not applicable	not applicable	not applicable	not applicable	not applicable	not applicable	not applicable	not applicable
521.994	4	20	12_H37_combined_small.mp4	fixationPostCuriosity	not applicable	not applicable	not applicable	not applicable	not applicable	not applicable	not applicable	not applicable	not applicable	not applicable	not applicable	not applicable	not applicable	not applicable
527.993	6.035	21	07_K2_combined_small.mp4	displayMockVid	not applicable	not applicable	not applicable	not applicable	not applicable	not applicable	not applicable	not applicable	not applicable	not applicable	not applicable	not applicable	not applicable	not applicable
534.028	27.216	21	07_K2_combined_small.mp4	displayVid	not applicable	not applicable	No recall	forgotten	forgotten	Green and golden sweets fall out of the pages of the book.	3	remembered	forgotten	forgotten	forgotten	forgotten	forgotten	forgotten
561.993	4.001	21	07_K2_combined_small.mp4	fixationPostVid	not applicable	not applicable	not applicable	not applicable	not applicable	not applicable	not applicable	not applicable	not applicable	not applicable	not applicable	not applicable	not applicable	not applicable
565.994	6	21	07_K2_combined_small.mp4	displayAnswer	31 or more	567.570962446014	not applicable	not applicable	not applicable	not applicable	not applicable	not applicable	not applicable	not applicable	not applicable	not applicable	not applicable	not applicable
571.994	0.049	21	07_K2_combined_small.mp4	fixationPostAnswer	not applicable	not applicable	not applicable	not applicable	not applicable	not applicable	not applicable	not applicable	not applicable	not applicable	not applicable	not applicable	not applicable	not applicable
572.043	5.951	21	07_K2_combined_small.mp4	displayCuriosity	1	575.628846472013	not applicable	not applicable	not applicable	not applicable	not applicable	not applicable	not applicable	not applicable	not applicable	not applicable	not applicable	not applicable
577.994	7.999	21	07_K2_combined_small.mp4	fixationPostCuriosity	not applicable	not applicable	not applicable	not applicable	not applicable	not applicable	not applicable	not applicable	not applicable	not applicable	not applicable	not applicable	not applicable	not applicable
587.992	6.002	22	23_K10_combined_small.mp4	displayMockVid	not applicable	not applicable	not applicable	not applicable	not applicable	not applicable	not applicable	not applicable	not applicable	not applicable	not applicable	not applicable	not applicable	not applicable
593.994	23.451	22	23_K10_combined_small.mp4	displayVid	not applicable	not applicable	Got the pins through each other without opening them	remembered	remembered	The safety pins magically interlock without breaking the seal.	6	remembered	remembered	remembered	remembered	remembered	remembered	remembered
617.994	3.998	22	23_K10_combined_small.mp4	fixationPostVid	not applicable	not applicable	not applicable	not applicable	not applicable	not applicable	not applicable	not applicable	not applicable	not applicable	not applicable	not applicable	not applicable	not applicable
621.992	5.997	22	23_K10_combined_small.mp4	displayAnswer	11 to 20	623.951605432027	not applicable	not applicable	not applicable	not applicable	not applicable	not applicable	not applicable	not applicable	not applicable	not applicable	not applicable	not applicable
627.988	0.05	22	23_K10_combined_small.mp4	fixationPostAnswer	not applicable	not applicable	not applicable	not applicable	not applicable	not applicable	not applicable	not applicable	not applicable	not applicable	not applicable	not applicable	not applicable	not applicable
628.039	5.954	22	23_K10_combined_small.mp4	displayCuriosity	4	629.523050772026	not applicable	not applicable	not applicable	not applicable	not applicable	not applicable	not applicable	not applicable	not applicable	not applicable	not applicable	not applicable
633.992	4.001	22	23_K10_combined_small.mp4	fixationPostCuriosity	not applicable	not applicable	not applicable	not applicable	not applicable	not applicable	not applicable	not applicable	not applicable	not applicable	not applicable	not applicable	not applicable	not applicable
639.992	6.036	23	09_S11_combined_small.mp4	displayMockVid	not applicable	not applicable	not applicable	not applicable	not applicable	not applicable	not applicable	not applicable	not applicable	not applicable	not applicable	not applicable	not applicable	not applicable
646.027	24.412	23	09_S11_combined_small.mp4	displayVid	not applicable	not applicable	No recall	forgotten	forgotten	The magician pushes a cigarette through a coin and then reveals that there is no hole.	5	remembered	remembered	remembered	remembered	remembered	remembered	remembered
671.992	3.998	23	09_S11_combined_small.mp4	fixationPostVid	not applicable	not applicable	not applicable	not applicable	not applicable	not applicable	not applicable	not applicable	not applicable	not applicable	not applicable	not applicable	not applicable	not applicable
675.99	6.002	23	09_S11_combined_small.mp4	displayAnswer	0 to 10	676.361683928	not applicable	not applicable	not applicable	not applicable	not applicable	not applicable	not applicable	not applicable	not applicable	not applicable	not applicable	not applicable
681.993	0.048	23	09_S11_combined_small.mp4	fixationPostAnswer	not applicable	not applicable	not applicable	not applicable	not applicable	not applicable	not applicable	not applicable	not applicable	not applicable	not applicable	not applicable	not applicable	not applicable
682.041	5.952	23	09_S11_combined_small.mp4	displayCuriosity	6	684.913986402011	not applicable	not applicable	not applicable	not applicable	not applicable	not applicable	not applicable	not applicable	not applicable	not applicable	not applicable	not applicable
687.992	3.998	23	09_S11_combined_small.mp4	fixationPostCuriosity	not applicable	not applicable	not applicable	not applicable	not applicable	not applicable	not applicable	not applicable	not applicable	not applicable	not applicable	not applicable	not applicable	not applicable
693.99	6.035	24	35_Trick32_long_combined_small.mp4	displayMockVid	not applicable	not applicable	not applicable	not applicable	not applicable	not applicable	not applicable	not applicable	not applicable	not applicable	not applicable	not applicable	not applicable	not applicable
700.025	46.936	24	35_Trick32_long_combined_small.mp4	displayVid	not applicable	not applicable	He has four coins and started hiding different ones under cards	forgotten	forgotten	The magician makes a silver coin disappear and reappear several times before it is transformed into a large coin.	2	remembered	forgotten	forgotten	forgotten	forgotten	forgotten	forgotten
747.992	9.997	24	35_Trick32_long_combined_small.mp4	fixationPostVid	not applicable	not applicable	not applicable	not applicable	not applicable	not applicable	not applicable	not applicable	not applicable	not applicable	not applicable	not applicable	not applicable	not applicable
757.99	5.997	24	35_Trick32_long_combined_small.mp4	displayAnswer	11 to 20	759.203490114014	not applicable	not applicable	not applicable	not applicable	not applicable	not applicable	not applicable	not applicable	not applicable	not applicable	not applicable	not applicable
763.987	0.05	24	35_Trick32_long_combined_small.mp4	fixationPostAnswer	not applicable	not applicable	not applicable	not applicable	not applicable	not applicable	not applicable	not applicable	not applicable	not applicable	not applicable	not applicable	not applicable	not applicable
764.037	5.952	24	35_Trick32_long_combined_small.mp4	displayCuriosity	3	765.827501405001	not applicable	not applicable	not applicable	not applicable	not applicable	not applicable	not applicable	not applicable	not applicable	not applicable	not applicable	not applicable
769.99	4	24	35_Trick32_long_combined_small.mp4	fixationPostCuriosity	not applicable	not applicable	not applicable	not applicable	not applicable	not applicable	not applicable	not applicable	not applicable	not applicable	not applicable	not applicable	not applicable	not applicable
