onset	duration	trial	stim_file	event	response	response_timestamp	response_recall	trial_type_cuedRecallStrict	trial_type_cuedRecallLenient	response_recognition	response_confidence	trial_type_allConf	trial_type_highConf	trial_type_aboveAvgConf	trial_type_rememberedStrictAboveAvg	trial_type_rememberedLenientAboveAvg	trial_type_rememberedStrictHigh	trial_type_rememberedLenientHigh
2	6.002	1	06_H7_combined_small.mp4	displayMockVid	not applicable	not applicable	not applicable	not applicable	not applicable	not applicable	not applicable	not applicable	not applicable	not applicable	not applicable	not applicable	not applicable	not applicable
8.003	34.412	1	06_H7_combined_small.mp4	displayVid	not applicable	not applicable	No recall	forgotten	forgotten	The magician wraps the salt shaker in the cloth and makes it disappear.	2	forgotten	forgotten	forgotten	forgotten	forgotten	forgotten	forgotten
44.001	3.999	1	06_H7_combined_small.mp4	fixationPostVid	not applicable	not applicable	not applicable	not applicable	not applicable	not applicable	not applicable	not applicable	not applicable	not applicable	not applicable	not applicable	not applicable	not applicable
48	6	1	06_H7_combined_small.mp4	displayAnswer	11 to 20	48.9843772239983	not applicable	not applicable	not applicable	not applicable	not applicable	not applicable	not applicable	not applicable	not applicable	not applicable	not applicable	not applicable
54	0.074	1	06_H7_combined_small.mp4	fixationPostAnswer	not applicable	not applicable	not applicable	not applicable	not applicable	not applicable	not applicable	not applicable	not applicable	not applicable	not applicable	not applicable	not applicable	not applicable
54.075	5.956	1	06_H7_combined_small.mp4	displayCuriosity	5	57.3573300439966	not applicable	not applicable	not applicable	not applicable	not applicable	not applicable	not applicable	not applicable	not applicable	not applicable	not applicable	not applicable
60.03	4.003	1	06_H7_combined_small.mp4	fixationPostCuriosity	not applicable	not applicable	not applicable	not applicable	not applicable	not applicable	not applicable	not applicable	not applicable	not applicable	not applicable	not applicable	not applicable	not applicable
66	6.024	2	19_H17_combined_small.mp4	displayMockVid	not applicable	not applicable	not applicable	not applicable	not applicable	not applicable	not applicable	not applicable	not applicable	not applicable	not applicable	not applicable	not applicable	not applicable
72.023	46.615	2	19_H17_combined_small.mp4	displayVid	not applicable	not applicable	No recall	forgotten	forgotten	The volunteer tries to slice breadsticks with the guillotine, but cannot do it.	5	forgotten	forgotten	forgotten	forgotten	forgotten	forgotten	forgotten
119.999	4	2	19_H17_combined_small.mp4	fixationPostVid	not applicable	not applicable	not applicable	not applicable	not applicable	not applicable	not applicable	not applicable	not applicable	not applicable	not applicable	not applicable	not applicable	not applicable
123.999	5.998	2	19_H17_combined_small.mp4	displayAnswer	21 to 30	125.203063132998	not applicable	not applicable	not applicable	not applicable	not applicable	not applicable	not applicable	not applicable	not applicable	not applicable	not applicable	not applicable
129.997	0.05	2	19_H17_combined_small.mp4	fixationPostAnswer	not applicable	not applicable	not applicable	not applicable	not applicable	not applicable	not applicable	not applicable	not applicable	not applicable	not applicable	not applicable	not applicable	not applicable
130.046	5.953	2	19_H17_combined_small.mp4	displayCuriosity	4	132.248782240997	not applicable	not applicable	not applicable	not applicable	not applicable	not applicable	not applicable	not applicable	not applicable	not applicable	not applicable	not applicable
135.999	7.999	2	19_H17_combined_small.mp4	fixationPostCuriosity	not applicable	not applicable	not applicable	not applicable	not applicable	not applicable	not applicable	not applicable	not applicable	not applicable	not applicable	not applicable	not applicable	not applicable
145.999	6.034	3	24_Trick28_combined_small.mp4	displayMockVid	not applicable	not applicable	not applicable	not applicable	not applicable	not applicable	not applicable	not applicable	not applicable	not applicable	not applicable	not applicable	not applicable	not applicable
152.033	40.461	3	24_Trick28_combined_small.mp4	displayVid	not applicable	not applicable	The hoops were clapped together and they became entangled even though they were previously separated	remembered	remembered	The magician links and unlinks several silver rings while they keep their shape.	6	remembered	remembered	remembered	remembered	remembered	remembered	remembered
193.993	4.004	3	24_Trick28_combined_small.mp4	fixationPostVid	not applicable	not applicable	not applicable	not applicable	not applicable	not applicable	not applicable	not applicable	not applicable	not applicable	not applicable	not applicable	not applicable	not applicable
197.997	6.002	3	24_Trick28_combined_small.mp4	displayAnswer	31 or more	199.644829170997	not applicable	not applicable	not applicable	not applicable	not applicable	not applicable	not applicable	not applicable	not applicable	not applicable	not applicable	not applicable
203.999	0.05	3	24_Trick28_combined_small.mp4	fixationPostAnswer	not applicable	not applicable	not applicable	not applicable	not applicable	not applicable	not applicable	not applicable	not applicable	not applicable	not applicable	not applicable	not applicable	not applicable
204.048	5.95	3	24_Trick28_combined_small.mp4	displayCuriosity	2	205.906501895995	not applicable	not applicable	not applicable	not applicable	not applicable	not applicable	not applicable	not applicable	not applicable	not applicable	not applicable	not applicable
209.998	9.997	3	24_Trick28_combined_small.mp4	fixationPostCuriosity	not applicable	not applicable	not applicable	not applicable	not applicable	not applicable	not applicable	not applicable	not applicable	not applicable	not applicable	not applicable	not applicable	not applicable
221.996	6.037	4	15_S18_combined_small.mp4	displayMockVid	not applicable	not applicable	not applicable	not applicable	not applicable	not applicable	not applicable	not applicable	not applicable	not applicable	not applicable	not applicable	not applicable	not applicable
228.033	31.93	4	15_S18_combined_small.mp4	displayVid	not applicable	not applicable	There were lots of different coloured bags inside	remembered	remembered	The magician pulls three boxes containing flowers from a paper bag.	5	remembered	remembered	remembered	remembered	remembered	remembered	remembered
259.998	3.997	4	15_S18_combined_small.mp4	fixationPostVid	not applicable	not applicable	not applicable	not applicable	not applicable	not applicable	not applicable	not applicable	not applicable	not applicable	not applicable	not applicable	not applicable	not applicable
263.994	6.003	4	15_S18_combined_small.mp4	displayAnswer	21 to 30	266.048547995997	not applicable	not applicable	not applicable	not applicable	not applicable	not applicable	not applicable	not applicable	not applicable	not applicable	not applicable	not applicable
269.997	0.05	4	15_S18_combined_small.mp4	fixationPostAnswer	not applicable	not applicable	not applicable	not applicable	not applicable	not applicable	not applicable	not applicable	not applicable	not applicable	not applicable	not applicable	not applicable	not applicable
270.047	5.95	4	15_S18_combined_small.mp4	displayCuriosity	4	272.848924209997	not applicable	not applicable	not applicable	not applicable	not applicable	not applicable	not applicable	not applicable	not applicable	not applicable	not applicable	not applicable
275.997	4	4	15_S18_combined_small.mp4	fixationPostCuriosity	not applicable	not applicable	not applicable	not applicable	not applicable	not applicable	not applicable	not applicable	not applicable	not applicable	not applicable	not applicable	not applicable	not applicable
281.997	6.034	5	28_K24_combined_small.mp4	displayMockVid	not applicable	not applicable	not applicable	not applicable	not applicable	not applicable	not applicable	not applicable	not applicable	not applicable	not applicable	not applicable	not applicable	not applicable
288.03	24.219	5	28_K24_combined_small.mp4	displayVid	not applicable	not applicable	The £10 note was folded up but when it was unfolded there was a different note	remembered	remembered	A £10 note is transformed into a £20  note.	6	remembered	remembered	remembered	remembered	remembered	remembered	remembered
313.997	3.999	5	28_K24_combined_small.mp4	fixationPostVid	not applicable	not applicable	not applicable	not applicable	not applicable	not applicable	not applicable	not applicable	not applicable	not applicable	not applicable	not applicable	not applicable	not applicable
317.996	6.001	5	28_K24_combined_small.mp4	displayAnswer	21 to 30	318.951015079998	not applicable	not applicable	not applicable	not applicable	not applicable	not applicable	not applicable	not applicable	not applicable	not applicable	not applicable	not applicable
323.997	0.049	5	28_K24_combined_small.mp4	fixationPostAnswer	not applicable	not applicable	not applicable	not applicable	not applicable	not applicable	not applicable	not applicable	not applicable	not applicable	not applicable	not applicable	not applicable	not applicable
324.046	5.95	5	28_K24_combined_small.mp4	displayCuriosity	2	325.696311335996	not applicable	not applicable	not applicable	not applicable	not applicable	not applicable	not applicable	not applicable	not applicable	not applicable	not applicable	not applicable
329.997	3.998	5	28_K24_combined_small.mp4	fixationPostCuriosity	not applicable	not applicable	not applicable	not applicable	not applicable	not applicable	not applicable	not applicable	not applicable	not applicable	not applicable	not applicable	not applicable	not applicable
335.996	6.003	6	36_Trick7_short_combined_small.mp4	displayMockVid	not applicable	not applicable	not applicable	not applicable	not applicable	not applicable	not applicable	not applicable	not applicable	not applicable	not applicable	not applicable	not applicable	not applicable
341.999	20.664	6	36_Trick7_short_combined_small.mp4	displayVid	not applicable	not applicable	The balls were placed in the womans hands but they appeared somewhere else	forgotten	forgotten	The magician places two foam balls in volunteer's hand and sets them alight, revealing two paper balls.	3	forgotten	forgotten	forgotten	forgotten	forgotten	forgotten	forgotten
363.997	4	6	36_Trick7_short_combined_small.mp4	fixationPostVid	not applicable	not applicable	not applicable	not applicable	not applicable	not applicable	not applicable	not applicable	not applicable	not applicable	not applicable	not applicable	not applicable	not applicable
367.996	6	6	36_Trick7_short_combined_small.mp4	displayAnswer	11 to 20	369.103386434996	not applicable	not applicable	not applicable	not applicable	not applicable	not applicable	not applicable	not applicable	not applicable	not applicable	not applicable	not applicable
373.996	0.05	6	36_Trick7_short_combined_small.mp4	fixationPostAnswer	not applicable	not applicable	not applicable	not applicable	not applicable	not applicable	not applicable	not applicable	not applicable	not applicable	not applicable	not applicable	not applicable	not applicable
374.046	5.948	6	36_Trick7_short_combined_small.mp4	displayCuriosity	6	375.786647779998	not applicable	not applicable	not applicable	not applicable	not applicable	not applicable	not applicable	not applicable	not applicable	not applicable	not applicable	not applicable
379.994	4.001	6	36_Trick7_short_combined_small.mp4	fixationPostCuriosity	not applicable	not applicable	not applicable	not applicable	not applicable	not applicable	not applicable	not applicable	not applicable	not applicable	not applicable	not applicable	not applicable	not applicable
385.995	6.036	7	20_Trick20_short_combined_small.mp4	displayMockVid	not applicable	not applicable	not applicable	not applicable	not applicable	not applicable	not applicable	not applicable	not applicable	not applicable	not applicable	not applicable	not applicable	not applicable
392.031	26.132	7	20_Trick20_short_combined_small.mp4	displayVid	not applicable	not applicable	The magician made the nut spin on the rope but the lady couldn't do it	forgotten	forgotten	The magician ties rope around the nut, but is not able to remove it afterwards as it seems that the nut has shrunk.	4	forgotten	forgotten	forgotten	forgotten	forgotten	forgotten	forgotten
419.996	3.997	7	20_Trick20_short_combined_small.mp4	fixationPostVid	not applicable	not applicable	not applicable	not applicable	not applicable	not applicable	not applicable	not applicable	not applicable	not applicable	not applicable	not applicable	not applicable	not applicable
423.993	6.002	7	20_Trick20_short_combined_small.mp4	displayAnswer	21 to 30	425.884118760994	not applicable	not applicable	not applicable	not applicable	not applicable	not applicable	not applicable	not applicable	not applicable	not applicable	not applicable	not applicable
429.995	0.05	7	20_Trick20_short_combined_small.mp4	fixationPostAnswer	not applicable	not applicable	not applicable	not applicable	not applicable	not applicable	not applicable	not applicable	not applicable	not applicable	not applicable	not applicable	not applicable	not applicable
430.045	5.95	7	20_Trick20_short_combined_small.mp4	displayCuriosity	3	431.483962752995	not applicable	not applicable	not applicable	not applicable	not applicable	not applicable	not applicable	not applicable	not applicable	not applicable	not applicable	not applicable
435.996	4	7	20_Trick20_short_combined_small.mp4	fixationPostCuriosity	not applicable	not applicable	not applicable	not applicable	not applicable	not applicable	not applicable	not applicable	not applicable	not applicable	not applicable	not applicable	not applicable	not applicable
441.995	6.033	8	12_H37_combined_small.mp4	displayMockVid	not applicable	not applicable	not applicable	not applicable	not applicable	not applicable	not applicable	not applicable	not applicable	not applicable	not applicable	not applicable	not applicable	not applicable
448.028	28.784	8	12_H37_combined_small.mp4	displayVid	not applicable	not applicable	No recall	forgotten	forgotten	The magician unscrews his own finger and then shakes it back into place.	6	remembered	remembered	remembered	remembered	remembered	remembered	remembered
477.994	6	8	12_H37_combined_small.mp4	fixationPostVid	not applicable	not applicable	not applicable	not applicable	not applicable	not applicable	not applicable	not applicable	not applicable	not applicable	not applicable	not applicable	not applicable	not applicable
483.995	5.999	8	12_H37_combined_small.mp4	displayAnswer	0 to 10	484.749587724	not applicable	not applicable	not applicable	not applicable	not applicable	not applicable	not applicable	not applicable	not applicable	not applicable	not applicable	not applicable
489.994	0.046	8	12_H37_combined_small.mp4	fixationPostAnswer	not applicable	not applicable	not applicable	not applicable	not applicable	not applicable	not applicable	not applicable	not applicable	not applicable	not applicable	not applicable	not applicable	not applicable
490.039	5.955	8	12_H37_combined_small.mp4	displayCuriosity	6	492.357813561001	not applicable	not applicable	not applicable	not applicable	not applicable	not applicable	not applicable	not applicable	not applicable	not applicable	not applicable	not applicable
495.995	3.999	8	12_H37_combined_small.mp4	fixationPostCuriosity	not applicable	not applicable	not applicable	not applicable	not applicable	not applicable	not applicable	not applicable	not applicable	not applicable	not applicable	not applicable	not applicable	not applicable
501.993	6.028	9	04_S9_combined_small.mp4	displayMockVid	not applicable	not applicable	not applicable	not applicable	not applicable	not applicable	not applicable	not applicable	not applicable	not applicable	not applicable	not applicable	not applicable	not applicable
508.022	32.456	9	04_S9_combined_small.mp4	displayVid	not applicable	not applicable	No recall	forgotten	forgotten	The magician covers the cards with a silk handkerchief. After the silk is removed, the cards are blank.	3	forgotten	forgotten	forgotten	forgotten	forgotten	forgotten	forgotten
541.994	4	9	04_S9_combined_small.mp4	fixationPostVid	not applicable	not applicable	not applicable	not applicable	not applicable	not applicable	not applicable	not applicable	not applicable	not applicable	not applicable	not applicable	not applicable	not applicable
545.993	6	9	04_S9_combined_small.mp4	displayAnswer	0 to 10	547.052569157	not applicable	not applicable	not applicable	not applicable	not applicable	not applicable	not applicable	not applicable	not applicable	not applicable	not applicable	not applicable
551.993	0.051	9	04_S9_combined_small.mp4	fixationPostAnswer	not applicable	not applicable	not applicable	not applicable	not applicable	not applicable	not applicable	not applicable	not applicable	not applicable	not applicable	not applicable	not applicable	not applicable
552.044	5.945	9	04_S9_combined_small.mp4	displayCuriosity	7	554.122261976001	not applicable	not applicable	not applicable	not applicable	not applicable	not applicable	not applicable	not applicable	not applicable	not applicable	not applicable	not applicable
557.989	4.003	9	04_S9_combined_small.mp4	fixationPostCuriosity	not applicable	not applicable	not applicable	not applicable	not applicable	not applicable	not applicable	not applicable	not applicable	not applicable	not applicable	not applicable	not applicable	not applicable
563.993	6.003	10	33_S21_combined_small.mp4	displayMockVid	not applicable	not applicable	not applicable	not applicable	not applicable	not applicable	not applicable	not applicable	not applicable	not applicable	not applicable	not applicable	not applicable	not applicable
569.996	21.848	10	33_S21_combined_small.mp4	displayVid	not applicable	not applicable	He bent the spoon	remembered	remembered	The magician bents the spoon only sing his pinkie as a force.	4	forgotten	forgotten	forgotten	remembered	remembered	remembered	remembered
591.993	6	10	33_S21_combined_small.mp4	fixationPostVid	not applicable	not applicable	not applicable	not applicable	not applicable	not applicable	not applicable	not applicable	not applicable	not applicable	not applicable	not applicable	not applicable	not applicable
597.993	5.996	10	33_S21_combined_small.mp4	displayAnswer	11 to 20	599.426840986998	not applicable	not applicable	not applicable	not applicable	not applicable	not applicable	not applicable	not applicable	not applicable	not applicable	not applicable	not applicable
603.989	0.05	10	33_S21_combined_small.mp4	fixationPostAnswer	not applicable	not applicable	not applicable	not applicable	not applicable	not applicable	not applicable	not applicable	not applicable	not applicable	not applicable	not applicable	not applicable	not applicable
604.039	5.953	10	33_S21_combined_small.mp4	displayCuriosity	6	606.455834508	not applicable	not applicable	not applicable	not applicable	not applicable	not applicable	not applicable	not applicable	not applicable	not applicable	not applicable	not applicable
609.992	6.001	10	33_S21_combined_small.mp4	fixationPostCuriosity	not applicable	not applicable	not applicable	not applicable	not applicable	not applicable	not applicable	not applicable	not applicable	not applicable	not applicable	not applicable	not applicable	not applicable
617.992	6.029	11	16_H19_combined_small.mp4	displayMockVid	not applicable	not applicable	not applicable	not applicable	not applicable	not applicable	not applicable	not applicable	not applicable	not applicable	not applicable	not applicable	not applicable	not applicable
624.021	22.615	11	16_H19_combined_small.mp4	displayVid	not applicable	not applicable	No recall	forgotten	forgotten	The magician lights matches without touching them.	1	forgotten	forgotten	forgotten	forgotten	forgotten	forgotten	forgotten
647.988	4.002	11	16_H19_combined_small.mp4	fixationPostVid	not applicable	not applicable	not applicable	not applicable	not applicable	not applicable	not applicable	not applicable	not applicable	not applicable	not applicable	not applicable	not applicable	not applicable
651.99	6.002	11	16_H19_combined_small.mp4	displayAnswer	11 to 20	652.81491809	not applicable	not applicable	not applicable	not applicable	not applicable	not applicable	not applicable	not applicable	not applicable	not applicable	not applicable	not applicable
657.993	0.049	11	16_H19_combined_small.mp4	fixationPostAnswer	not applicable	not applicable	not applicable	not applicable	not applicable	not applicable	not applicable	not applicable	not applicable	not applicable	not applicable	not applicable	not applicable	not applicable
658.042	5.95	11	16_H19_combined_small.mp4	displayCuriosity	5	659.695261618996	not applicable	not applicable	not applicable	not applicable	not applicable	not applicable	not applicable	not applicable	not applicable	not applicable	not applicable	not applicable
663.992	9.999	11	16_H19_combined_small.mp4	fixationPostCuriosity	not applicable	not applicable	not applicable	not applicable	not applicable	not applicable	not applicable	not applicable	not applicable	not applicable	not applicable	not applicable	not applicable	not applicable
675.991	6.003	12	01_H35_combined_small.mp4	displayMockVid	not applicable	not applicable	not applicable	not applicable	not applicable	not applicable	not applicable	not applicable	not applicable	not applicable	not applicable	not applicable	not applicable	not applicable
681.993	37.681	12	01_H35_combined_small.mp4	displayVid	not applicable	not applicable	The lady put a cross on one of the cards the magician made it appear in a different spot in the deck	forgotten	forgotten	The volunteer signs a card that is placed into the Ziploc bag, but then appears in the card box.	4	forgotten	forgotten	forgotten	forgotten	forgotten	forgotten	forgotten
719.99	4.003	12	01_H35_combined_small.mp4	fixationPostVid	not applicable	not applicable	not applicable	not applicable	not applicable	not applicable	not applicable	not applicable	not applicable	not applicable	not applicable	not applicable	not applicable	not applicable
723.993	5.998	12	01_H35_combined_small.mp4	displayAnswer	11 to 20	726.771200295996	not applicable	not applicable	not applicable	not applicable	not applicable	not applicable	not applicable	not applicable	not applicable	not applicable	not applicable	not applicable
729.991	0.05	12	01_H35_combined_small.mp4	fixationPostAnswer	not applicable	not applicable	not applicable	not applicable	not applicable	not applicable	not applicable	not applicable	not applicable	not applicable	not applicable	not applicable	not applicable	not applicable
730.04	5.95	12	01_H35_combined_small.mp4	displayCuriosity	6	732.806997956999	not applicable	not applicable	not applicable	not applicable	not applicable	not applicable	not applicable	not applicable	not applicable	not applicable	not applicable	not applicable
735.99	3.997	12	01_H35_combined_small.mp4	fixationPostCuriosity	not applicable	not applicable	not applicable	not applicable	not applicable	not applicable	not applicable	not applicable	not applicable	not applicable	not applicable	not applicable	not applicable	not applicable
