onset	duration	trial	stim_file	event	response	response_timestamp	response_recall	trial_type_cuedRecallStrict	trial_type_cuedRecallLenient	response_recognition	response_confidence	trial_type_allConf	trial_type_highConf	trial_type_aboveAvgConf	trial_type_rememberedStrictAboveAvg	trial_type_rememberedLenientAboveAvg	trial_type_rememberedStrictHigh	trial_type_rememberedLenientHigh
2	6.032	1	14_K19_long_combined_small.mp4	displayMockVid	not applicable	not applicable	not applicable	not applicable	not applicable	not applicable	not applicable	not applicable	not applicable	not applicable	not applicable	not applicable	not applicable	not applicable
8.032	32.366	1	14_K19_long_combined_small.mp4	displayVid	not applicable	not applicable	He puts the sponges under the cup. Makes the sponges disappear. Pulls them out of his hands with appear empty. Makes them disappear again .Then makes them reappear under the mug.  	remembered	remembered	The balls magically change their location and become a toy rabbit.	2	remembered	forgotten	forgotten	remembered	remembered	remembered	remembered
42	4	1	14_K19_long_combined_small.mp4	fixationPostVid	not applicable	not applicable	not applicable	not applicable	not applicable	not applicable	not applicable	not applicable	not applicable	not applicable	not applicable	not applicable	not applicable	not applicable
46	6	1	14_K19_long_combined_small.mp4	displayAnswer	11 to 20	47.1261734909931	not applicable	not applicable	not applicable	not applicable	not applicable	not applicable	not applicable	not applicable	not applicable	not applicable	not applicable	not applicable
52	0.077	1	14_K19_long_combined_small.mp4	fixationPostAnswer	not applicable	not applicable	not applicable	not applicable	not applicable	not applicable	not applicable	not applicable	not applicable	not applicable	not applicable	not applicable	not applicable	not applicable
52.077	5.955	1	14_K19_long_combined_small.mp4	displayCuriosity	5	55.3009074029978	not applicable	not applicable	not applicable	not applicable	not applicable	not applicable	not applicable	not applicable	not applicable	not applicable	not applicable	not applicable
58.032	4.001	1	14_K19_long_combined_small.mp4	fixationPostCuriosity	not applicable	not applicable	not applicable	not applicable	not applicable	not applicable	not applicable	not applicable	not applicable	not applicable	not applicable	not applicable	not applicable	not applicable
64.003	6.032	2	01_H35_combined_small.mp4	displayMockVid	not applicable	not applicable	not applicable	not applicable	not applicable	not applicable	not applicable	not applicable	not applicable	not applicable	not applicable	not applicable	not applicable	not applicable
70.035	37.666	2	01_H35_combined_small.mp4	displayVid	not applicable	not applicable	No recall	forgotten	forgotten	The volunteer signs a card which the magician subsequently pulls from a Ziploc bag.	3	remembered	forgotten	forgotten	forgotten	forgotten	forgotten	forgotten
108	4	2	01_H35_combined_small.mp4	fixationPostVid	not applicable	not applicable	not applicable	not applicable	not applicable	not applicable	not applicable	not applicable	not applicable	not applicable	not applicable	not applicable	not applicable	not applicable
112	5.999	2	01_H35_combined_small.mp4	displayAnswer	11 to 20	113.684728648004	not applicable	not applicable	not applicable	not applicable	not applicable	not applicable	not applicable	not applicable	not applicable	not applicable	not applicable	not applicable
117.999	0.051	2	01_H35_combined_small.mp4	fixationPostAnswer	not applicable	not applicable	not applicable	not applicable	not applicable	not applicable	not applicable	not applicable	not applicable	not applicable	not applicable	not applicable	not applicable	not applicable
118.05	5.947	2	01_H35_combined_small.mp4	displayCuriosity	4	121.918928090003	not applicable	not applicable	not applicable	not applicable	not applicable	not applicable	not applicable	not applicable	not applicable	not applicable	not applicable	not applicable
123.996	8.003	2	01_H35_combined_small.mp4	fixationPostCuriosity	not applicable	not applicable	not applicable	not applicable	not applicable	not applicable	not applicable	not applicable	not applicable	not applicable	not applicable	not applicable	not applicable	not applicable
133.999	6.027	3	30_H15_combined_small.mp4	displayMockVid	not applicable	not applicable	not applicable	not applicable	not applicable	not applicable	not applicable	not applicable	not applicable	not applicable	not applicable	not applicable	not applicable	not applicable
140.026	31.906	3	30_H15_combined_small.mp4	displayVid	not applicable	not applicable	No recall	forgotten	forgotten	The magician pierces the deck of cards with a toothpick, but afterwards there is no hole.	3	forgotten	forgotten	forgotten	forgotten	forgotten	forgotten	forgotten
172	3.999	3	30_H15_combined_small.mp4	fixationPostVid	not applicable	not applicable	not applicable	not applicable	not applicable	not applicable	not applicable	not applicable	not applicable	not applicable	not applicable	not applicable	not applicable	not applicable
175.999	6	3	30_H15_combined_small.mp4	displayAnswer	11 to 20	177.042045233	not applicable	not applicable	not applicable	not applicable	not applicable	not applicable	not applicable	not applicable	not applicable	not applicable	not applicable	not applicable
181.998	0.049	3	30_H15_combined_small.mp4	fixationPostAnswer	not applicable	not applicable	not applicable	not applicable	not applicable	not applicable	not applicable	not applicable	not applicable	not applicable	not applicable	not applicable	not applicable	not applicable
182.048	5.95	3	30_H15_combined_small.mp4	displayCuriosity	4	186.281020059992	not applicable	not applicable	not applicable	not applicable	not applicable	not applicable	not applicable	not applicable	not applicable	not applicable	not applicable	not applicable
187.998	10	3	30_H15_combined_small.mp4	fixationPostCuriosity	not applicable	not applicable	not applicable	not applicable	not applicable	not applicable	not applicable	not applicable	not applicable	not applicable	not applicable	not applicable	not applicable	not applicable
199.998	6.026	4	06_H7_combined_small.mp4	displayMockVid	not applicable	not applicable	not applicable	not applicable	not applicable	not applicable	not applicable	not applicable	not applicable	not applicable	not applicable	not applicable	not applicable	not applicable
206.024	33.874	4	06_H7_combined_small.mp4	displayVid	not applicable	not applicable	No recall	forgotten	forgotten	The magician changes the salt to water.	1	forgotten	forgotten	forgotten	forgotten	forgotten	forgotten	forgotten
239.998	4	4	06_H7_combined_small.mp4	fixationPostVid	not applicable	not applicable	not applicable	not applicable	not applicable	not applicable	not applicable	not applicable	not applicable	not applicable	not applicable	not applicable	not applicable	not applicable
243.998	6	4	06_H7_combined_small.mp4	displayAnswer	0 to 10	245.177795437005	not applicable	not applicable	not applicable	not applicable	not applicable	not applicable	not applicable	not applicable	not applicable	not applicable	not applicable	not applicable
249.998	0.05	4	06_H7_combined_small.mp4	fixationPostAnswer	not applicable	not applicable	not applicable	not applicable	not applicable	not applicable	not applicable	not applicable	not applicable	not applicable	not applicable	not applicable	not applicable	not applicable
250.047	5.951	4	06_H7_combined_small.mp4	displayCuriosity	6	253.555950941998	not applicable	not applicable	not applicable	not applicable	not applicable	not applicable	not applicable	not applicable	not applicable	not applicable	not applicable	not applicable
255.998	3.997	4	06_H7_combined_small.mp4	fixationPostCuriosity	not applicable	not applicable	not applicable	not applicable	not applicable	not applicable	not applicable	not applicable	not applicable	not applicable	not applicable	not applicable	not applicable	not applicable
261.997	6.002	5	36_Trick7_short_combined_small.mp4	displayMockVid	not applicable	not applicable	not applicable	not applicable	not applicable	not applicable	not applicable	not applicable	not applicable	not applicable	not applicable	not applicable	not applicable	not applicable
267.999	20.652	5	36_Trick7_short_combined_small.mp4	displayVid	not applicable	not applicable	He makes the sponges jump from one hand to the other	remembered	remembered	The magician places two foam balls in volunteer's hands. The foam balls then start to jump up and down of their own accord.	5	forgotten	forgotten	forgotten	remembered	remembered	remembered	remembered
290	3.997	5	36_Trick7_short_combined_small.mp4	fixationPostVid	not applicable	not applicable	not applicable	not applicable	not applicable	not applicable	not applicable	not applicable	not applicable	not applicable	not applicable	not applicable	not applicable	not applicable
293.997	6	5	36_Trick7_short_combined_small.mp4	displayAnswer	11 to 20	296.096666821992	not applicable	not applicable	not applicable	not applicable	not applicable	not applicable	not applicable	not applicable	not applicable	not applicable	not applicable	not applicable
299.997	0.049	5	36_Trick7_short_combined_small.mp4	fixationPostAnswer	not applicable	not applicable	not applicable	not applicable	not applicable	not applicable	not applicable	not applicable	not applicable	not applicable	not applicable	not applicable	not applicable	not applicable
300.046	5.948	5	36_Trick7_short_combined_small.mp4	displayCuriosity	4	302.871719158997	not applicable	not applicable	not applicable	not applicable	not applicable	not applicable	not applicable	not applicable	not applicable	not applicable	not applicable	not applicable
305.994	4.004	5	36_Trick7_short_combined_small.mp4	fixationPostCuriosity	not applicable	not applicable	not applicable	not applicable	not applicable	not applicable	not applicable	not applicable	not applicable	not applicable	not applicable	not applicable	not applicable	not applicable
311.999	6.033	6	16_H19_combined_small.mp4	displayMockVid	not applicable	not applicable	not applicable	not applicable	not applicable	not applicable	not applicable	not applicable	not applicable	not applicable	not applicable	not applicable	not applicable	not applicable
318.032	22.619	6	16_H19_combined_small.mp4	displayVid	not applicable	not applicable	no recall	forgotten	forgotten	The magician places paper in volunteer's hand and sets it alight, revealing a red sponge ball.	4	remembered	remembered	remembered	remembered	remembered	remembered	remembered
341.997	3.999	6	16_H19_combined_small.mp4	fixationPostVid	not applicable	not applicable	not applicable	not applicable	not applicable	not applicable	not applicable	not applicable	not applicable	not applicable	not applicable	not applicable	not applicable	not applicable
345.996	5.998	6	16_H19_combined_small.mp4	displayAnswer	11 to 20	347.026992037994	not applicable	not applicable	not applicable	not applicable	not applicable	not applicable	not applicable	not applicable	not applicable	not applicable	not applicable	not applicable
351.994	0.049	6	16_H19_combined_small.mp4	fixationPostAnswer	not applicable	not applicable	not applicable	not applicable	not applicable	not applicable	not applicable	not applicable	not applicable	not applicable	not applicable	not applicable	not applicable	not applicable
352.043	5.953	6	16_H19_combined_small.mp4	displayCuriosity	5	353.750496712993	not applicable	not applicable	not applicable	not applicable	not applicable	not applicable	not applicable	not applicable	not applicable	not applicable	not applicable	not applicable
357.996	4	6	16_H19_combined_small.mp4	fixationPostCuriosity	not applicable	not applicable	not applicable	not applicable	not applicable	not applicable	not applicable	not applicable	not applicable	not applicable	not applicable	not applicable	not applicable	not applicable
364.002	6.029	7	22_K18_combined_small.mp4	displayMockVid	not applicable	not applicable	not applicable	not applicable	not applicable	not applicable	not applicable	not applicable	not applicable	not applicable	not applicable	not applicable	not applicable	not applicable
370.031	22.228	7	22_K18_combined_small.mp4	displayVid	not applicable	not applicable	No recall	forgotten	forgotten	A pack of cards appears from a single piece of paper.	2	remembered	forgotten	forgotten	forgotten	forgotten	forgotten	forgotten
394.009	4.002	7	22_K18_combined_small.mp4	fixationPostVid	not applicable	not applicable	not applicable	not applicable	not applicable	not applicable	not applicable	not applicable	not applicable	not applicable	not applicable	not applicable	not applicable	not applicable
398.011	6.002	7	22_K18_combined_small.mp4	displayAnswer	0 to 10	399.582319364999	not applicable	not applicable	not applicable	not applicable	not applicable	not applicable	not applicable	not applicable	not applicable	not applicable	not applicable	not applicable
404.012	0.049	7	22_K18_combined_small.mp4	fixationPostAnswer	not applicable	not applicable	not applicable	not applicable	not applicable	not applicable	not applicable	not applicable	not applicable	not applicable	not applicable	not applicable	not applicable	not applicable
404.062	5.951	7	22_K18_combined_small.mp4	displayCuriosity	4	406.393516914002	not applicable	not applicable	not applicable	not applicable	not applicable	not applicable	not applicable	not applicable	not applicable	not applicable	not applicable	not applicable
410.013	4	7	22_K18_combined_small.mp4	fixationPostCuriosity	not applicable	not applicable	not applicable	not applicable	not applicable	not applicable	not applicable	not applicable	not applicable	not applicable	not applicable	not applicable	not applicable	not applicable
416.006	6.024	8	09_S11_combined_small.mp4	displayMockVid	not applicable	not applicable	not applicable	not applicable	not applicable	not applicable	not applicable	not applicable	not applicable	not applicable	not applicable	not applicable	not applicable	not applicable
422.03	24.438	8	09_S11_combined_small.mp4	displayVid	not applicable	not applicable	Shows us that the coin is solid. Then proceeds to push the cigarette through the middle of the coin. Then shows us that the coin is solid again 	remembered	remembered	The magician pushes a cigarette through a coin and then reveals that there is no hole.	6	remembered	remembered	remembered	remembered	remembered	remembered	remembered
447.998	5.998	8	09_S11_combined_small.mp4	fixationPostVid	not applicable	not applicable	not applicable	not applicable	not applicable	not applicable	not applicable	not applicable	not applicable	not applicable	not applicable	not applicable	not applicable	not applicable
453.995	5.999	8	09_S11_combined_small.mp4	displayAnswer	11 to 20	455.074637739002	not applicable	not applicable	not applicable	not applicable	not applicable	not applicable	not applicable	not applicable	not applicable	not applicable	not applicable	not applicable
459.995	0.05	8	09_S11_combined_small.mp4	fixationPostAnswer	not applicable	not applicable	not applicable	not applicable	not applicable	not applicable	not applicable	not applicable	not applicable	not applicable	not applicable	not applicable	not applicable	not applicable
460.044	5.948	8	09_S11_combined_small.mp4	displayCuriosity	4	462.806403786002	not applicable	not applicable	not applicable	not applicable	not applicable	not applicable	not applicable	not applicable	not applicable	not applicable	not applicable	not applicable
465.993	4.002	8	09_S11_combined_small.mp4	fixationPostCuriosity	not applicable	not applicable	not applicable	not applicable	not applicable	not applicable	not applicable	not applicable	not applicable	not applicable	not applicable	not applicable	not applicable	not applicable
471.997	6.032	9	34_Trick38_combined_small.mp4	displayMockVid	not applicable	not applicable	not applicable	not applicable	not applicable	not applicable	not applicable	not applicable	not applicable	not applicable	not applicable	not applicable	not applicable	not applicable
478.03	27.414	9	34_Trick38_combined_small.mp4	displayVid	not applicable	not applicable	No recall	forgotten	forgotten	The magician closes one fist around a silk handkerchief and makes it disappear. Then, he makes it appear in his other hand.	4	remembered	remembered	remembered	remembered	remembered	remembered	remembered
506.006	4.002	9	34_Trick38_combined_small.mp4	fixationPostVid	not applicable	not applicable	not applicable	not applicable	not applicable	not applicable	not applicable	not applicable	not applicable	not applicable	not applicable	not applicable	not applicable	not applicable
510.007	6.003	9	34_Trick38_combined_small.mp4	displayAnswer	21 to 30	511.535918698995	not applicable	not applicable	not applicable	not applicable	not applicable	not applicable	not applicable	not applicable	not applicable	not applicable	not applicable	not applicable
516.011	0.05	9	34_Trick38_combined_small.mp4	fixationPostAnswer	not applicable	not applicable	not applicable	not applicable	not applicable	not applicable	not applicable	not applicable	not applicable	not applicable	not applicable	not applicable	not applicable	not applicable
516.061	5.955	9	34_Trick38_combined_small.mp4	displayCuriosity	4	521.986625373	not applicable	not applicable	not applicable	not applicable	not applicable	not applicable	not applicable	not applicable	not applicable	not applicable	not applicable	not applicable
522.016	4.004	9	34_Trick38_combined_small.mp4	fixationPostCuriosity	not applicable	not applicable	not applicable	not applicable	not applicable	not applicable	not applicable	not applicable	not applicable	not applicable	not applicable	not applicable	not applicable	not applicable
528.004	6.039	10	26_S30_combined_small.mp4	displayMockVid	not applicable	not applicable	not applicable	not applicable	not applicable	not applicable	not applicable	not applicable	not applicable	not applicable	not applicable	not applicable	not applicable	not applicable
534.044	25.17	10	26_S30_combined_small.mp4	displayVid	not applicable	not applicable	no recall	forgotten	forgotten	The magician pulls string through two sticks which appear to be connected. However he then reveals thw two sticks are not connected at all.	1	remembered	forgotten	forgotten	forgotten	forgotten	forgotten	forgotten
559.994	5.999	10	26_S30_combined_small.mp4	fixationPostVid	not applicable	not applicable	not applicable	not applicable	not applicable	not applicable	not applicable	not applicable	not applicable	not applicable	not applicable	not applicable	not applicable	not applicable
565.993	6	10	26_S30_combined_small.mp4	displayAnswer	11 to 20	568.057209081002	not applicable	not applicable	not applicable	not applicable	not applicable	not applicable	not applicable	not applicable	not applicable	not applicable	not applicable	not applicable
571.993	0.049	10	26_S30_combined_small.mp4	fixationPostAnswer	not applicable	not applicable	not applicable	not applicable	not applicable	not applicable	not applicable	not applicable	not applicable	not applicable	not applicable	not applicable	not applicable	not applicable
572.043	5.947	10	26_S30_combined_small.mp4	displayCuriosity	5	576.089619607999	not applicable	not applicable	not applicable	not applicable	not applicable	not applicable	not applicable	not applicable	not applicable	not applicable	not applicable	not applicable
577.99	6.003	10	26_S30_combined_small.mp4	fixationPostCuriosity	not applicable	not applicable	not applicable	not applicable	not applicable	not applicable	not applicable	not applicable	not applicable	not applicable	not applicable	not applicable	not applicable	not applicable
585.995	6.033	11	24_Trick28_combined_small.mp4	displayMockVid	not applicable	not applicable	not applicable	not applicable	not applicable	not applicable	not applicable	not applicable	not applicable	not applicable	not applicable	not applicable	not applicable	not applicable
592.028	40.468	11	24_Trick28_combined_small.mp4	displayVid	not applicable	not applicable	He links all the solid metal rings together like a chain. Then unlinks the chain of rings making them all individual rings again	remembered	remembered	The magician links and unlinks several silver rings while they keep their shape.	6	remembered	remembered	remembered	remembered	remembered	remembered	remembered
633.997	4.002	11	24_Trick28_combined_small.mp4	fixationPostVid	not applicable	not applicable	not applicable	not applicable	not applicable	not applicable	not applicable	not applicable	not applicable	not applicable	not applicable	not applicable	not applicable	not applicable
638	6.005	11	24_Trick28_combined_small.mp4	displayAnswer	11 to 20	641.936801767006	not applicable	not applicable	not applicable	not applicable	not applicable	not applicable	not applicable	not applicable	not applicable	not applicable	not applicable	not applicable
644.005	0.049	11	24_Trick28_combined_small.mp4	fixationPostAnswer	not applicable	not applicable	not applicable	not applicable	not applicable	not applicable	not applicable	not applicable	not applicable	not applicable	not applicable	not applicable	not applicable	not applicable
644.054	5.955	11	24_Trick28_combined_small.mp4	displayCuriosity	5	648.056213132004	not applicable	not applicable	not applicable	not applicable	not applicable	not applicable	not applicable	not applicable	not applicable	not applicable	not applicable	not applicable
650.009	10	11	24_Trick28_combined_small.mp4	fixationPostCuriosity	not applicable	not applicable	not applicable	not applicable	not applicable	not applicable	not applicable	not applicable	not applicable	not applicable	not applicable	not applicable	not applicable	not applicable
662	6.008	12	18_Trick4_combined_small.mp4	displayMockVid	not applicable	not applicable	not applicable	not applicable	not applicable	not applicable	not applicable	not applicable	not applicable	not applicable	not applicable	not applicable	not applicable	not applicable
668.008	47.834	12	18_Trick4_combined_small.mp4	displayVid	not applicable	not applicable	No recall	forgotten	forgotten	The magician puts the mobile phone inside the balloon with a simple gesture of his hands.	6	remembered	remembered	remembered	remembered	remembered	remembered	remembered
716.007	4.001	12	18_Trick4_combined_small.mp4	fixationPostVid	not applicable	not applicable	not applicable	not applicable	not applicable	not applicable	not applicable	not applicable	not applicable	not applicable	not applicable	not applicable	not applicable	not applicable
720.008	6	12	18_Trick4_combined_small.mp4	displayAnswer	0 to 10	720.550588704995	not applicable	not applicable	not applicable	not applicable	not applicable	not applicable	not applicable	not applicable	not applicable	not applicable	not applicable	not applicable
726.008	0.051	12	18_Trick4_combined_small.mp4	fixationPostAnswer	not applicable	not applicable	not applicable	not applicable	not applicable	not applicable	not applicable	not applicable	not applicable	not applicable	not applicable	not applicable	not applicable	not applicable
726.058	5.95	12	18_Trick4_combined_small.mp4	displayCuriosity	6	730.338034921006	not applicable	not applicable	not applicable	not applicable	not applicable	not applicable	not applicable	not applicable	not applicable	not applicable	not applicable	not applicable
732.008	3.997	12	18_Trick4_combined_small.mp4	fixationPostCuriosity	not applicable	not applicable	not applicable	not applicable	not applicable	not applicable	not applicable	not applicable	not applicable	not applicable	not applicable	not applicable	not applicable	not applicable
