onset	duration	trial	stim_file	event	response	response_timestamp	response_recall	trial_type_cuedRecallStrict	trial_type_cuedRecallLenient	response_recognition	response_confidence	trial_type_allConf	trial_type_highConf	trial_type_aboveAvgConf	trial_type_rememberedStrictAboveAvg	trial_type_rememberedLenientAboveAvg	trial_type_rememberedStrictHigh	trial_type_rememberedLenientHigh
1.987	6.031	25	23_K10_combined_small.mp4	displayMockVid	not applicable	not applicable	not applicable	not applicable	not applicable	not applicable	not applicable	not applicable	not applicable	not applicable	not applicable	not applicable	not applicable	not applicable
8.017	23.416	25	23_K10_combined_small.mp4	displayVid	not applicable	not applicable	he put the two pins together 	remembered	remembered	The safety pins magically interlock without breaking the seal.	6	remembered	remembered	remembered	remembered	remembered	remembered	remembered
31.993	4.004	25	23_K10_combined_small.mp4	fixationPostVid	not applicable	not applicable	not applicable	not applicable	not applicable	not applicable	not applicable	not applicable	not applicable	not applicable	not applicable	not applicable	not applicable	not applicable
35.997	6.003	25	23_K10_combined_small.mp4	displayAnswer	21 to 30	38.3334681199995	not applicable	not applicable	not applicable	not applicable	not applicable	not applicable	not applicable	not applicable	not applicable	not applicable	not applicable	not applicable
41.999	0.05	25	23_K10_combined_small.mp4	fixationPostAnswer	not applicable	not applicable	not applicable	not applicable	not applicable	not applicable	not applicable	not applicable	not applicable	not applicable	not applicable	not applicable	not applicable	not applicable
42.049	5.95	25	23_K10_combined_small.mp4	displayCuriosity	5	47.9631046309987	not applicable	not applicable	not applicable	not applicable	not applicable	not applicable	not applicable	not applicable	not applicable	not applicable	not applicable	not applicable
47.999	7.995	25	23_K10_combined_small.mp4	fixationPostCuriosity	not applicable	not applicable	not applicable	not applicable	not applicable	not applicable	not applicable	not applicable	not applicable	not applicable	not applicable	not applicable	not applicable	not applicable
57.995	6.023	26	05_K4_combined_small.mp4	displayMockVid	not applicable	not applicable	not applicable	not applicable	not applicable	not applicable	not applicable	not applicable	not applicable	not applicable	not applicable	not applicable	not applicable	not applicable
64.017	31.182	26	05_K4_combined_small.mp4	displayVid	not applicable	not applicable	no recall	forgotten	forgotten	The magician shakes the rubix cube and it becomes all white.	4	forgotten	forgotten	forgotten	forgotten	forgotten	forgotten	forgotten
95.989	4.003	26	05_K4_combined_small.mp4	fixationPostVid	not applicable	not applicable	not applicable	not applicable	not applicable	not applicable	not applicable	not applicable	not applicable	not applicable	not applicable	not applicable	not applicable	not applicable
99.992	6.005	26	05_K4_combined_small.mp4	displayAnswer	21 to 30	103.839174223001	not applicable	not applicable	not applicable	not applicable	not applicable	not applicable	not applicable	not applicable	not applicable	not applicable	not applicable	not applicable
105.997	0.049	26	05_K4_combined_small.mp4	fixationPostAnswer	not applicable	not applicable	not applicable	not applicable	not applicable	not applicable	not applicable	not applicable	not applicable	not applicable	not applicable	not applicable	not applicable	not applicable
106.046	5.953	26	05_K4_combined_small.mp4	displayCuriosity	5	110.688246072001	not applicable	not applicable	not applicable	not applicable	not applicable	not applicable	not applicable	not applicable	not applicable	not applicable	not applicable	not applicable
111.999	3.999	26	05_K4_combined_small.mp4	fixationPostCuriosity	not applicable	not applicable	not applicable	not applicable	not applicable	not applicable	not applicable	not applicable	not applicable	not applicable	not applicable	not applicable	not applicable	not applicable
117.987	6.04	27	32_K16_short_combined_small.mp4	displayMockVid	not applicable	not applicable	not applicable	not applicable	not applicable	not applicable	not applicable	not applicable	not applicable	not applicable	not applicable	not applicable	not applicable	not applicable
124.028	31.403	27	32_K16_short_combined_small.mp4	displayVid	not applicable	not applicable	no recall	forgotten	forgotten	The volunteer selects and signs a card that is placed in the middle of the deck, but then appears on the top of it.	5	remembered	remembered	remembered	remembered	remembered	remembered	remembered
155.999	4	27	32_K16_short_combined_small.mp4	fixationPostVid	not applicable	not applicable	not applicable	not applicable	not applicable	not applicable	not applicable	not applicable	not applicable	not applicable	not applicable	not applicable	not applicable	not applicable
159.999	5.999	27	32_K16_short_combined_small.mp4	displayAnswer	11 to 20	160.385428951999	not applicable	not applicable	not applicable	not applicable	not applicable	not applicable	not applicable	not applicable	not applicable	not applicable	not applicable	not applicable
165.998	0.049	27	32_K16_short_combined_small.mp4	fixationPostAnswer	not applicable	not applicable	not applicable	not applicable	not applicable	not applicable	not applicable	not applicable	not applicable	not applicable	not applicable	not applicable	not applicable	not applicable
166.047	5.948	27	32_K16_short_combined_small.mp4	displayCuriosity	4	169.278513967001	not applicable	not applicable	not applicable	not applicable	not applicable	not applicable	not applicable	not applicable	not applicable	not applicable	not applicable	not applicable
171.994	4.002	27	32_K16_short_combined_small.mp4	fixationPostCuriosity	not applicable	not applicable	not applicable	not applicable	not applicable	not applicable	not applicable	not applicable	not applicable	not applicable	not applicable	not applicable	not applicable	not applicable
177.997	6.034	28	12_H37_combined_small.mp4	displayMockVid	not applicable	not applicable	not applicable	not applicable	not applicable	not applicable	not applicable	not applicable	not applicable	not applicable	not applicable	not applicable	not applicable	not applicable
184.032	28.774	28	12_H37_combined_small.mp4	displayVid	not applicable	not applicable	no recall 	forgotten	forgotten	The magician detaches his thumb, but when he turns his hands, the thumb is reattached.	4	forgotten	forgotten	forgotten	forgotten	forgotten	forgotten	forgotten
213.991	4.002	28	12_H37_combined_small.mp4	fixationPostVid	not applicable	not applicable	not applicable	not applicable	not applicable	not applicable	not applicable	not applicable	not applicable	not applicable	not applicable	not applicable	not applicable	not applicable
217.993	6.003	28	12_H37_combined_small.mp4	displayAnswer	11 to 20	221.472207878	not applicable	not applicable	not applicable	not applicable	not applicable	not applicable	not applicable	not applicable	not applicable	not applicable	not applicable	not applicable
223.996	0.05	28	12_H37_combined_small.mp4	fixationPostAnswer	not applicable	not applicable	not applicable	not applicable	not applicable	not applicable	not applicable	not applicable	not applicable	not applicable	not applicable	not applicable	not applicable	not applicable
224.046	5.951	28	12_H37_combined_small.mp4	displayCuriosity	4	226.649873137001	not applicable	not applicable	not applicable	not applicable	not applicable	not applicable	not applicable	not applicable	not applicable	not applicable	not applicable	not applicable
229.997	3.991	28	12_H37_combined_small.mp4	fixationPostCuriosity	not applicable	not applicable	not applicable	not applicable	not applicable	not applicable	not applicable	not applicable	not applicable	not applicable	not applicable	not applicable	not applicable	not applicable
235.989	6.04	29	11_K21_long_combined_small.mp4	displayMockVid	not applicable	not applicable	not applicable	not applicable	not applicable	not applicable	not applicable	not applicable	not applicable	not applicable	not applicable	not applicable	not applicable	not applicable
242.029	43.763	29	11_K21_long_combined_small.mp4	displayVid	not applicable	not applicable	no recall	forgotten	forgotten	The magician flips the middle card over with a slight gesture and then changes the colour of the back of the card from blue to red.	5	remembered	remembered	remembered	remembered	remembered	remembered	remembered
285.993	6.003	29	11_K21_long_combined_small.mp4	fixationPostVid	not applicable	not applicable	not applicable	not applicable	not applicable	not applicable	not applicable	not applicable	not applicable	not applicable	not applicable	not applicable	not applicable	not applicable
291.996	6	29	11_K21_long_combined_small.mp4	displayAnswer	21 to 30	292.376159986001	not applicable	not applicable	not applicable	not applicable	not applicable	not applicable	not applicable	not applicable	not applicable	not applicable	not applicable	not applicable
297.996	0.049	29	11_K21_long_combined_small.mp4	fixationPostAnswer	not applicable	not applicable	not applicable	not applicable	not applicable	not applicable	not applicable	not applicable	not applicable	not applicable	not applicable	not applicable	not applicable	not applicable
298.045	5.944	29	11_K21_long_combined_small.mp4	displayCuriosity	5	300.665174515001	not applicable	not applicable	not applicable	not applicable	not applicable	not applicable	not applicable	not applicable	not applicable	not applicable	not applicable	not applicable
303.989	4.003	29	11_K21_long_combined_small.mp4	fixationPostCuriosity	not applicable	not applicable	not applicable	not applicable	not applicable	not applicable	not applicable	not applicable	not applicable	not applicable	not applicable	not applicable	not applicable	not applicable
309.993	6.023	30	02_H10_combined_small.mp4	displayMockVid	not applicable	not applicable	not applicable	not applicable	not applicable	not applicable	not applicable	not applicable	not applicable	not applicable	not applicable	not applicable	not applicable	not applicable
316.016	30.863	30	02_H10_combined_small.mp4	displayVid	not applicable	not applicable	"""he \returned\"""" the four pieces into a whole card """""""	remembered	remembered	The magician is able to split and put back together a card.	4	forgotten	forgotten	forgotten	remembered	remembered	remembered	remembered
347.987	4.003	30	02_H10_combined_small.mp4	fixationPostVid	not applicable	not applicable	not applicable	not applicable	not applicable	not applicable	not applicable	not applicable	not applicable	not applicable	not applicable	not applicable	not applicable	not applicable
351.99	6.005	30	02_H10_combined_small.mp4	displayAnswer	11 to 20	353.424624665	not applicable	not applicable	not applicable	not applicable	not applicable	not applicable	not applicable	not applicable	not applicable	not applicable	not applicable	not applicable
357.995	0.049	30	02_H10_combined_small.mp4	fixationPostAnswer	not applicable	not applicable	not applicable	not applicable	not applicable	not applicable	not applicable	not applicable	not applicable	not applicable	not applicable	not applicable	not applicable	not applicable
358.044	5.951	30	02_H10_combined_small.mp4	displayCuriosity	4	360.577208235001	not applicable	not applicable	not applicable	not applicable	not applicable	not applicable	not applicable	not applicable	not applicable	not applicable	not applicable	not applicable
363.995	4	30	02_H10_combined_small.mp4	fixationPostCuriosity	not applicable	not applicable	not applicable	not applicable	not applicable	not applicable	not applicable	not applicable	not applicable	not applicable	not applicable	not applicable	not applicable	not applicable
369.986	6.027	31	34_Trick38_combined_small.mp4	displayMockVid	not applicable	not applicable	not applicable	not applicable	not applicable	not applicable	not applicable	not applicable	not applicable	not applicable	not applicable	not applicable	not applicable	not applicable
376.013	27.413	31	34_Trick38_combined_small.mp4	displayVid	not applicable	not applicable	no recall	forgotten	forgotten	The magician closes one fist around a silk handkerchief and makes it disappear. Then, he makes it appear in his other hand.	2	remembered	forgotten	forgotten	forgotten	forgotten	forgotten	forgotten
403.996	3.998	31	34_Trick38_combined_small.mp4	fixationPostVid	not applicable	not applicable	not applicable	not applicable	not applicable	not applicable	not applicable	not applicable	not applicable	not applicable	not applicable	not applicable	not applicable	not applicable
407.994	6.001	31	34_Trick38_combined_small.mp4	displayAnswer	11 to 20	409.169834734999	not applicable	not applicable	not applicable	not applicable	not applicable	not applicable	not applicable	not applicable	not applicable	not applicable	not applicable	not applicable
413.995	0.049	31	34_Trick38_combined_small.mp4	fixationPostAnswer	not applicable	not applicable	not applicable	not applicable	not applicable	not applicable	not applicable	not applicable	not applicable	not applicable	not applicable	not applicable	not applicable	not applicable
414.043	5.946	31	34_Trick38_combined_small.mp4	displayCuriosity	4	417.833927903001	not applicable	not applicable	not applicable	not applicable	not applicable	not applicable	not applicable	not applicable	not applicable	not applicable	not applicable	not applicable
419.99	8.004	31	34_Trick38_combined_small.mp4	fixationPostCuriosity	not applicable	not applicable	not applicable	not applicable	not applicable	not applicable	not applicable	not applicable	not applicable	not applicable	not applicable	not applicable	not applicable	not applicable
429.993	6.036	32	29_H36_combined_small.mp4	displayMockVid	not applicable	not applicable	not applicable	not applicable	not applicable	not applicable	not applicable	not applicable	not applicable	not applicable	not applicable	not applicable	not applicable	not applicable
436.029	36.414	32	29_H36_combined_small.mp4	displayVid	not applicable	not applicable	no recall	forgotten	forgotten	The nut is placed on the middle of the bold by the volunteer and magically unscrews itself.	2	remembered	forgotten	forgotten	forgotten	forgotten	forgotten	forgotten
473.994	4	32	29_H36_combined_small.mp4	fixationPostVid	not applicable	not applicable	not applicable	not applicable	not applicable	not applicable	not applicable	not applicable	not applicable	not applicable	not applicable	not applicable	not applicable	not applicable
477.994	5.999	32	29_H36_combined_small.mp4	displayAnswer	11 to 20	479.068168721999	not applicable	not applicable	not applicable	not applicable	not applicable	not applicable	not applicable	not applicable	not applicable	not applicable	not applicable	not applicable
483.993	0.051	32	29_H36_combined_small.mp4	fixationPostAnswer	not applicable	not applicable	not applicable	not applicable	not applicable	not applicable	not applicable	not applicable	not applicable	not applicable	not applicable	not applicable	not applicable	not applicable
484.043	5.946	32	29_H36_combined_small.mp4	displayCuriosity	3	485.453561351002	not applicable	not applicable	not applicable	not applicable	not applicable	not applicable	not applicable	not applicable	not applicable	not applicable	not applicable	not applicable
489.99	4.003	32	29_H36_combined_small.mp4	fixationPostCuriosity	not applicable	not applicable	not applicable	not applicable	not applicable	not applicable	not applicable	not applicable	not applicable	not applicable	not applicable	not applicable	not applicable	not applicable
495.992	6.036	33	28_K24_combined_small.mp4	displayMockVid	not applicable	not applicable	not applicable	not applicable	not applicable	not applicable	not applicable	not applicable	not applicable	not applicable	not applicable	not applicable	not applicable	not applicable
502.028	24.203	33	28_K24_combined_small.mp4	displayVid	not applicable	not applicable	"""I think he played around with the 10 pound note and in the end he \turned it into\"""" another note?"""""""	remembered	remembered	A £10 note is transformed into a £20  note.	6	remembered	remembered	remembered	remembered	remembered	remembered	remembered
527.984	4.002	33	28_K24_combined_small.mp4	fixationPostVid	not applicable	not applicable	not applicable	not applicable	not applicable	not applicable	not applicable	not applicable	not applicable	not applicable	not applicable	not applicable	not applicable	not applicable
531.987	6.004	33	28_K24_combined_small.mp4	displayAnswer	11 to 20	535.614242813001	not applicable	not applicable	not applicable	not applicable	not applicable	not applicable	not applicable	not applicable	not applicable	not applicable	not applicable	not applicable
537.991	0.05	33	28_K24_combined_small.mp4	fixationPostAnswer	not applicable	not applicable	not applicable	not applicable	not applicable	not applicable	not applicable	not applicable	not applicable	not applicable	not applicable	not applicable	not applicable	not applicable
538.041	5.951	33	28_K24_combined_small.mp4	displayCuriosity	6	539.770578088999	not applicable	not applicable	not applicable	not applicable	not applicable	not applicable	not applicable	not applicable	not applicable	not applicable	not applicable	not applicable
543.992	4	33	28_K24_combined_small.mp4	fixationPostCuriosity	not applicable	not applicable	not applicable	not applicable	not applicable	not applicable	not applicable	not applicable	not applicable	not applicable	not applicable	not applicable	not applicable	not applicable
549.982	6.028	34	17_Trick37_combined_small.mp4	displayMockVid	not applicable	not applicable	not applicable	not applicable	not applicable	not applicable	not applicable	not applicable	not applicable	not applicable	not applicable	not applicable	not applicable	not applicable
556.01	46.293	34	17_Trick37_combined_small.mp4	displayVid	not applicable	not applicable	no recall	forgotten	forgotten	The magician has an elastic band on his hand, which then magically ends up around the volunteer's hand.	2	forgotten	forgotten	forgotten	forgotten	forgotten	forgotten	forgotten
603.988	4.003	34	17_Trick37_combined_small.mp4	fixationPostVid	not applicable	not applicable	not applicable	not applicable	not applicable	not applicable	not applicable	not applicable	not applicable	not applicable	not applicable	not applicable	not applicable	not applicable
607.992	6.003	34	17_Trick37_combined_small.mp4	displayAnswer	NaN	613.95609521	not applicable	not applicable	not applicable	not applicable	not applicable	not applicable	not applicable	not applicable	not applicable	not applicable	not applicable	not applicable
613.995	0.046	34	17_Trick37_combined_small.mp4	fixationPostAnswer	not applicable	not applicable	not applicable	not applicable	not applicable	not applicable	not applicable	not applicable	not applicable	not applicable	not applicable	not applicable	not applicable	not applicable
614.041	5.958	34	17_Trick37_combined_small.mp4	displayCuriosity	4	619.955618046999	not applicable	not applicable	not applicable	not applicable	not applicable	not applicable	not applicable	not applicable	not applicable	not applicable	not applicable	not applicable
619.999	9.992	34	17_Trick37_combined_small.mp4	fixationPostCuriosity	not applicable	not applicable	not applicable	not applicable	not applicable	not applicable	not applicable	not applicable	not applicable	not applicable	not applicable	not applicable	not applicable	not applicable
631.991	6.036	35	13_Trick6_short_combined_small.mp4	displayMockVid	not applicable	not applicable	not applicable	not applicable	not applicable	not applicable	not applicable	not applicable	not applicable	not applicable	not applicable	not applicable	not applicable	not applicable
638.026	37.663	35	13_Trick6_short_combined_small.mp4	displayVid	not applicable	not applicable	no recall	forgotten	forgotten	The magician places a red ball underneath the cup, but when he lifts it up, it is an orange balloon.	3	forgotten	forgotten	forgotten	forgotten	forgotten	forgotten	forgotten
675.992	3.999	35	13_Trick6_short_combined_small.mp4	fixationPostVid	not applicable	not applicable	not applicable	not applicable	not applicable	not applicable	not applicable	not applicable	not applicable	not applicable	not applicable	not applicable	not applicable	not applicable
679.991	5.999	35	13_Trick6_short_combined_small.mp4	displayAnswer	11 to 20	682.194575083999	not applicable	not applicable	not applicable	not applicable	not applicable	not applicable	not applicable	not applicable	not applicable	not applicable	not applicable	not applicable
685.991	0.05	35	13_Trick6_short_combined_small.mp4	fixationPostAnswer	not applicable	not applicable	not applicable	not applicable	not applicable	not applicable	not applicable	not applicable	not applicable	not applicable	not applicable	not applicable	not applicable	not applicable
686.04	5.944	35	13_Trick6_short_combined_small.mp4	displayCuriosity	3	688.839067854999	not applicable	not applicable	not applicable	not applicable	not applicable	not applicable	not applicable	not applicable	not applicable	not applicable	not applicable	not applicable
691.985	4.003	35	13_Trick6_short_combined_small.mp4	fixationPostCuriosity	not applicable	not applicable	not applicable	not applicable	not applicable	not applicable	not applicable	not applicable	not applicable	not applicable	not applicable	not applicable	not applicable	not applicable
697.99	6.003	36	35_Trick32_long_combined_small.mp4	displayMockVid	not applicable	not applicable	not applicable	not applicable	not applicable	not applicable	not applicable	not applicable	not applicable	not applicable	not applicable	not applicable	not applicable	not applicable
703.992	46.963	36	35_Trick32_long_combined_small.mp4	displayVid	not applicable	not applicable	no recall	forgotten	forgotten	The magician ask the volunteer for a coin. Then the coin magically bends inside the closed fist of the volunteer.	4	forgotten	forgotten	forgotten	forgotten	forgotten	forgotten	forgotten
751.99	9.996	36	35_Trick32_long_combined_small.mp4	fixationPostVid	not applicable	not applicable	not applicable	not applicable	not applicable	not applicable	not applicable	not applicable	not applicable	not applicable	not applicable	not applicable	not applicable	not applicable
761.986	6.003	36	35_Trick32_long_combined_small.mp4	displayAnswer	11 to 20	766.754064445002	not applicable	not applicable	not applicable	not applicable	not applicable	not applicable	not applicable	not applicable	not applicable	not applicable	not applicable	not applicable
767.988	0.051	36	35_Trick32_long_combined_small.mp4	fixationPostAnswer	not applicable	not applicable	not applicable	not applicable	not applicable	not applicable	not applicable	not applicable	not applicable	not applicable	not applicable	not applicable	not applicable	not applicable
768.039	5.949	36	35_Trick32_long_combined_small.mp4	displayCuriosity	3	769.48510881	not applicable	not applicable	not applicable	not applicable	not applicable	not applicable	not applicable	not applicable	not applicable	not applicable	not applicable	not applicable
773.988	3.992	36	35_Trick32_long_combined_small.mp4	fixationPostCuriosity	not applicable	not applicable	not applicable	not applicable	not applicable	not applicable	not applicable	not applicable	not applicable	not applicable	not applicable	not applicable	not applicable	not applicable
