onset	duration	trial	stim_file	event	response	response_timestamp	response_recall	trial_type_cuedRecallStrict	trial_type_cuedRecallLenient	response_recognition	response_confidence	trial_type_allConf	trial_type_highConf	trial_type_aboveAvgConf	trial_type_rememberedStrictAboveAvg	trial_type_rememberedLenientAboveAvg	trial_type_rememberedStrictHigh	trial_type_rememberedLenientHigh
2.002	6.037	25	06_H7_combined_small.mp4	displayMockVid	not applicable	not applicable	not applicable	not applicable	not applicable	not applicable	not applicable	not applicable	not applicable	not applicable	not applicable	not applicable	not applicable	not applicable
8.039	33.849	25	06_H7_combined_small.mp4	displayVid	not applicable	not applicable	no recall	forgotten	forgotten	The magician wraps the salt shaker in the cloth and makes it disappear.	4	forgotten	forgotten	forgotten	forgotten	forgotten	forgotten	forgotten
42.003	3.997	25	06_H7_combined_small.mp4	fixationPostVid	not applicable	not applicable	not applicable	not applicable	not applicable	not applicable	not applicable	not applicable	not applicable	not applicable	not applicable	not applicable	not applicable	not applicable
46	6.002	25	06_H7_combined_small.mp4	displayAnswer	0 to 10	46.7563744100044	not applicable	not applicable	not applicable	not applicable	not applicable	not applicable	not applicable	not applicable	not applicable	not applicable	not applicable	not applicable
52.002	0.051	25	06_H7_combined_small.mp4	fixationPostAnswer	not applicable	not applicable	not applicable	not applicable	not applicable	not applicable	not applicable	not applicable	not applicable	not applicable	not applicable	not applicable	not applicable	not applicable
52.053	5.972	25	06_H7_combined_small.mp4	displayCuriosity	7	57.9784166680038	not applicable	not applicable	not applicable	not applicable	not applicable	not applicable	not applicable	not applicable	not applicable	not applicable	not applicable	not applicable
58.025	8.006	25	06_H7_combined_small.mp4	fixationPostCuriosity	not applicable	not applicable	not applicable	not applicable	not applicable	not applicable	not applicable	not applicable	not applicable	not applicable	not applicable	not applicable	not applicable	not applicable
68.002	6.036	26	35_Trick32_long_combined_small.mp4	displayMockVid	not applicable	not applicable	not applicable	not applicable	not applicable	not applicable	not applicable	not applicable	not applicable	not applicable	not applicable	not applicable	not applicable	not applicable
74.038	46.931	26	35_Trick32_long_combined_small.mp4	displayVid	not applicable	not applicable	no recall	forgotten	forgotten	The magician makes a silver coin disappear and reappear several times before it is transformed into a large coin.	5	remembered	remembered	remembered	remembered	remembered	remembered	remembered
122.002	3.999	26	35_Trick32_long_combined_small.mp4	fixationPostVid	not applicable	not applicable	not applicable	not applicable	not applicable	not applicable	not applicable	not applicable	not applicable	not applicable	not applicable	not applicable	not applicable	not applicable
126.001	6	26	35_Trick32_long_combined_small.mp4	displayAnswer	21 to 30	126.925134431003	not applicable	not applicable	not applicable	not applicable	not applicable	not applicable	not applicable	not applicable	not applicable	not applicable	not applicable	not applicable
132.001	0.051	26	35_Trick32_long_combined_small.mp4	fixationPostAnswer	not applicable	not applicable	not applicable	not applicable	not applicable	not applicable	not applicable	not applicable	not applicable	not applicable	not applicable	not applicable	not applicable	not applicable
132.051	5.981	26	35_Trick32_long_combined_small.mp4	displayCuriosity	5	137.976627197	not applicable	not applicable	not applicable	not applicable	not applicable	not applicable	not applicable	not applicable	not applicable	not applicable	not applicable	not applicable
138.033	4.002	26	35_Trick32_long_combined_small.mp4	fixationPostCuriosity	not applicable	not applicable	not applicable	not applicable	not applicable	not applicable	not applicable	not applicable	not applicable	not applicable	not applicable	not applicable	not applicable	not applicable
144.001	6.026	27	31_K3_combined_small.mp4	displayMockVid	not applicable	not applicable	not applicable	not applicable	not applicable	not applicable	not applicable	not applicable	not applicable	not applicable	not applicable	not applicable	not applicable	not applicable
150.027	25.899	27	31_K3_combined_small.mp4	displayVid	not applicable	not applicable	something on the other side -dots and these were taken off when flipped	remembered	remembered	The magician makes ladybirds appear and then disappear again.	5	remembered	remembered	remembered	remembered	remembered	remembered	remembered
176.001	4	27	31_K3_combined_small.mp4	fixationPostVid	not applicable	not applicable	not applicable	not applicable	not applicable	not applicable	not applicable	not applicable	not applicable	not applicable	not applicable	not applicable	not applicable	not applicable
180.001	6	27	31_K3_combined_small.mp4	displayAnswer	11 to 20	183.560659209004	not applicable	not applicable	not applicable	not applicable	not applicable	not applicable	not applicable	not applicable	not applicable	not applicable	not applicable	not applicable
186.001	0.049	27	31_K3_combined_small.mp4	fixationPostAnswer	not applicable	not applicable	not applicable	not applicable	not applicable	not applicable	not applicable	not applicable	not applicable	not applicable	not applicable	not applicable	not applicable	not applicable
186.05	5.971	27	31_K3_combined_small.mp4	displayCuriosity	6	191.976084847003	not applicable	not applicable	not applicable	not applicable	not applicable	not applicable	not applicable	not applicable	not applicable	not applicable	not applicable	not applicable
192.021	3.995	27	31_K3_combined_small.mp4	fixationPostCuriosity	not applicable	not applicable	not applicable	not applicable	not applicable	not applicable	not applicable	not applicable	not applicable	not applicable	not applicable	not applicable	not applicable	not applicable
198	6.033	28	02_H10_combined_small.mp4	displayMockVid	not applicable	not applicable	not applicable	not applicable	not applicable	not applicable	not applicable	not applicable	not applicable	not applicable	not applicable	not applicable	not applicable	not applicable
204.033	30.852	28	02_H10_combined_small.mp4	displayVid	not applicable	not applicable	all 4 corners were put together to form one card	remembered	remembered	The magician magically repairs split card.	4	remembered	remembered	forgotten	remembered	remembered	remembered	remembered
236	4	28	02_H10_combined_small.mp4	fixationPostVid	not applicable	not applicable	not applicable	not applicable	not applicable	not applicable	not applicable	not applicable	not applicable	not applicable	not applicable	not applicable	not applicable	not applicable
240	6.001	28	02_H10_combined_small.mp4	displayAnswer	11 to 20	240.835433253	not applicable	not applicable	not applicable	not applicable	not applicable	not applicable	not applicable	not applicable	not applicable	not applicable	not applicable	not applicable
246.001	0.048	28	02_H10_combined_small.mp4	fixationPostAnswer	not applicable	not applicable	not applicable	not applicable	not applicable	not applicable	not applicable	not applicable	not applicable	not applicable	not applicable	not applicable	not applicable	not applicable
246.049	5.983	28	02_H10_combined_small.mp4	displayCuriosity	6	251.975164241005	not applicable	not applicable	not applicable	not applicable	not applicable	not applicable	not applicable	not applicable	not applicable	not applicable	not applicable	not applicable
252.032	4.001	28	02_H10_combined_small.mp4	fixationPostCuriosity	not applicable	not applicable	not applicable	not applicable	not applicable	not applicable	not applicable	not applicable	not applicable	not applicable	not applicable	not applicable	not applicable	not applicable
257.999	6.003	29	10_S27_combined_small.mp4	displayMockVid	not applicable	not applicable	not applicable	not applicable	not applicable	not applicable	not applicable	not applicable	not applicable	not applicable	not applicable	not applicable	not applicable	not applicable
264.002	31.629	29	10_S27_combined_small.mp4	displayVid	not applicable	not applicable	one of the cups was actually full before the experiment and cup on the left poured into full cup on the right. 	forgotten	forgotten	The magician pours water into a cup from the bottle, but when he tips it upside down, no water spills out.	5	forgotten	forgotten	forgotten	forgotten	forgotten	forgotten	forgotten
295.999	6.001	29	10_S27_combined_small.mp4	fixationPostVid	not applicable	not applicable	not applicable	not applicable	not applicable	not applicable	not applicable	not applicable	not applicable	not applicable	not applicable	not applicable	not applicable	not applicable
302	5.999	29	10_S27_combined_small.mp4	displayAnswer	0 to 10	303.727563439999	not applicable	not applicable	not applicable	not applicable	not applicable	not applicable	not applicable	not applicable	not applicable	not applicable	not applicable	not applicable
307.999	0.05	29	10_S27_combined_small.mp4	fixationPostAnswer	not applicable	not applicable	not applicable	not applicable	not applicable	not applicable	not applicable	not applicable	not applicable	not applicable	not applicable	not applicable	not applicable	not applicable
308.049	5.977	29	10_S27_combined_small.mp4	displayCuriosity	7	313.974531388005	not applicable	not applicable	not applicable	not applicable	not applicable	not applicable	not applicable	not applicable	not applicable	not applicable	not applicable	not applicable
314.026	4.004	29	10_S27_combined_small.mp4	fixationPostCuriosity	not applicable	not applicable	not applicable	not applicable	not applicable	not applicable	not applicable	not applicable	not applicable	not applicable	not applicable	not applicable	not applicable	not applicable
319.997	6.037	30	24_Trick28_combined_small.mp4	displayMockVid	not applicable	not applicable	not applicable	not applicable	not applicable	not applicable	not applicable	not applicable	not applicable	not applicable	not applicable	not applicable	not applicable	not applicable
326.034	40.449	30	24_Trick28_combined_small.mp4	displayVid	not applicable	not applicable	no recall	forgotten	forgotten	The magician links and unlinks several silver rings while the rings shape their appearance once they get linked.	4	forgotten	forgotten	forgotten	forgotten	forgotten	forgotten	forgotten
367.998	4	30	24_Trick28_combined_small.mp4	fixationPostVid	not applicable	not applicable	not applicable	not applicable	not applicable	not applicable	not applicable	not applicable	not applicable	not applicable	not applicable	not applicable	not applicable	not applicable
371.998	6	30	24_Trick28_combined_small.mp4	displayAnswer	31 or more	372.457989066999	not applicable	not applicable	not applicable	not applicable	not applicable	not applicable	not applicable	not applicable	not applicable	not applicable	not applicable	not applicable
377.998	0.049	30	24_Trick28_combined_small.mp4	fixationPostAnswer	not applicable	not applicable	not applicable	not applicable	not applicable	not applicable	not applicable	not applicable	not applicable	not applicable	not applicable	not applicable	not applicable	not applicable
378.047	5.963	30	24_Trick28_combined_small.mp4	displayCuriosity	2	383.972826091005	not applicable	not applicable	not applicable	not applicable	not applicable	not applicable	not applicable	not applicable	not applicable	not applicable	not applicable	not applicable
384.01	4.004	30	24_Trick28_combined_small.mp4	fixationPostCuriosity	not applicable	not applicable	not applicable	not applicable	not applicable	not applicable	not applicable	not applicable	not applicable	not applicable	not applicable	not applicable	not applicable	not applicable
389.998	6.002	31	23_K10_combined_small.mp4	displayMockVid	not applicable	not applicable	not applicable	not applicable	not applicable	not applicable	not applicable	not applicable	not applicable	not applicable	not applicable	not applicable	not applicable	not applicable
395.999	23.449	31	23_K10_combined_small.mp4	displayVid	not applicable	not applicable	the safety pins were put togther instantly 	remembered	remembered	The safety pins magically interlock without breaking the seal.	5	remembered	remembered	remembered	remembered	remembered	remembered	remembered
419.998	4	31	23_K10_combined_small.mp4	fixationPostVid	not applicable	not applicable	not applicable	not applicable	not applicable	not applicable	not applicable	not applicable	not applicable	not applicable	not applicable	not applicable	not applicable	not applicable
423.998	5.999	31	23_K10_combined_small.mp4	displayAnswer	31 or more	425.621228666001	not applicable	not applicable	not applicable	not applicable	not applicable	not applicable	not applicable	not applicable	not applicable	not applicable	not applicable	not applicable
429.997	0.046	31	23_K10_combined_small.mp4	fixationPostAnswer	not applicable	not applicable	not applicable	not applicable	not applicable	not applicable	not applicable	not applicable	not applicable	not applicable	not applicable	not applicable	not applicable	not applicable
430.043	5.97	31	23_K10_combined_small.mp4	displayCuriosity	2	435.968604817004	not applicable	not applicable	not applicable	not applicable	not applicable	not applicable	not applicable	not applicable	not applicable	not applicable	not applicable	not applicable
436.013	8.001	31	23_K10_combined_small.mp4	fixationPostCuriosity	not applicable	not applicable	not applicable	not applicable	not applicable	not applicable	not applicable	not applicable	not applicable	not applicable	not applicable	not applicable	not applicable	not applicable
445.996	6.035	32	15_S18_combined_small.mp4	displayMockVid	not applicable	not applicable	not applicable	not applicable	not applicable	not applicable	not applicable	not applicable	not applicable	not applicable	not applicable	not applicable	not applicable	not applicable
452.031	31.945	32	15_S18_combined_small.mp4	displayVid	not applicable	not applicable	There was another bag in the bag 	remembered	remembered	The magician pulls three boxes containing flowers from a paper bag.	5	remembered	remembered	remembered	remembered	remembered	remembered	remembered
483.997	4	32	15_S18_combined_small.mp4	fixationPostVid	not applicable	not applicable	not applicable	not applicable	not applicable	not applicable	not applicable	not applicable	not applicable	not applicable	not applicable	not applicable	not applicable	not applicable
487.997	5.999	32	15_S18_combined_small.mp4	displayAnswer	21 to 30	489.176734591005	not applicable	not applicable	not applicable	not applicable	not applicable	not applicable	not applicable	not applicable	not applicable	not applicable	not applicable	not applicable
493.996	0.049	32	15_S18_combined_small.mp4	fixationPostAnswer	not applicable	not applicable	not applicable	not applicable	not applicable	not applicable	not applicable	not applicable	not applicable	not applicable	not applicable	not applicable	not applicable	not applicable
494.045	5.965	32	15_S18_combined_small.mp4	displayCuriosity	7	499.970332555	not applicable	not applicable	not applicable	not applicable	not applicable	not applicable	not applicable	not applicable	not applicable	not applicable	not applicable	not applicable
500.01	4.003	32	15_S18_combined_small.mp4	fixationPostCuriosity	not applicable	not applicable	not applicable	not applicable	not applicable	not applicable	not applicable	not applicable	not applicable	not applicable	not applicable	not applicable	not applicable	not applicable
505.996	6.035	33	28_K24_combined_small.mp4	displayMockVid	not applicable	not applicable	not applicable	not applicable	not applicable	not applicable	not applicable	not applicable	not applicable	not applicable	not applicable	not applicable	not applicable	not applicable
512.031	24.213	33	28_K24_combined_small.mp4	displayVid	not applicable	not applicable	turned into a £20 note	remembered	remembered	A £10 note is transformed into a £20  note.	6	remembered	remembered	remembered	remembered	remembered	remembered	remembered
537.996	4	33	28_K24_combined_small.mp4	fixationPostVid	not applicable	not applicable	not applicable	not applicable	not applicable	not applicable	not applicable	not applicable	not applicable	not applicable	not applicable	not applicable	not applicable	not applicable
541.995	6	33	28_K24_combined_small.mp4	displayAnswer	11 to 20	544.003899458003	not applicable	not applicable	not applicable	not applicable	not applicable	not applicable	not applicable	not applicable	not applicable	not applicable	not applicable	not applicable
547.995	0.05	33	28_K24_combined_small.mp4	fixationPostAnswer	not applicable	not applicable	not applicable	not applicable	not applicable	not applicable	not applicable	not applicable	not applicable	not applicable	not applicable	not applicable	not applicable	not applicable
548.045	5.984	33	28_K24_combined_small.mp4	displayCuriosity	7	553.970332725003	not applicable	not applicable	not applicable	not applicable	not applicable	not applicable	not applicable	not applicable	not applicable	not applicable	not applicable	not applicable
554.029	4	33	28_K24_combined_small.mp4	fixationPostCuriosity	not applicable	not applicable	not applicable	not applicable	not applicable	not applicable	not applicable	not applicable	not applicable	not applicable	not applicable	not applicable	not applicable	not applicable
559.995	6.036	34	20_Trick20_short_combined_small.mp4	displayMockVid	not applicable	not applicable	not applicable	not applicable	not applicable	not applicable	not applicable	not applicable	not applicable	not applicable	not applicable	not applicable	not applicable	not applicable
566.031	26.148	34	20_Trick20_short_combined_small.mp4	displayVid	not applicable	not applicable	no recall	forgotten	forgotten	The magician ties a knot around the volunteer's wrist using the rope. After snapping his finger, the nut is tied in the rope, too.	5	forgotten	forgotten	forgotten	forgotten	forgotten	forgotten	forgotten
594.012	4	34	20_Trick20_short_combined_small.mp4	fixationPostVid	not applicable	not applicable	not applicable	not applicable	not applicable	not applicable	not applicable	not applicable	not applicable	not applicable	not applicable	not applicable	not applicable	not applicable
598.012	6	34	20_Trick20_short_combined_small.mp4	displayAnswer	31 or more	599.838607393001	not applicable	not applicable	not applicable	not applicable	not applicable	not applicable	not applicable	not applicable	not applicable	not applicable	not applicable	not applicable
604.012	0.05	34	20_Trick20_short_combined_small.mp4	fixationPostAnswer	not applicable	not applicable	not applicable	not applicable	not applicable	not applicable	not applicable	not applicable	not applicable	not applicable	not applicable	not applicable	not applicable	not applicable
604.061	5.977	34	20_Trick20_short_combined_small.mp4	displayCuriosity	2	609.987141775004	not applicable	not applicable	not applicable	not applicable	not applicable	not applicable	not applicable	not applicable	not applicable	not applicable	not applicable	not applicable
610.039	10.006	34	20_Trick20_short_combined_small.mp4	fixationPostCuriosity	not applicable	not applicable	not applicable	not applicable	not applicable	not applicable	not applicable	not applicable	not applicable	not applicable	not applicable	not applicable	not applicable	not applicable
621.994	6.003	35	04_S9_combined_small.mp4	displayMockVid	not applicable	not applicable	not applicable	not applicable	not applicable	not applicable	not applicable	not applicable	not applicable	not applicable	not applicable	not applicable	not applicable	not applicable
627.997	32.496	35	04_S9_combined_small.mp4	displayVid	not applicable	not applicable	no recall	forgotten	forgotten	The magician shows a card and then pulls the correct card from a shuffled deck.	5	forgotten	forgotten	forgotten	forgotten	forgotten	forgotten	forgotten
662.011	4.001	35	04_S9_combined_small.mp4	fixationPostVid	not applicable	not applicable	not applicable	not applicable	not applicable	not applicable	not applicable	not applicable	not applicable	not applicable	not applicable	not applicable	not applicable	not applicable
666.012	6	35	04_S9_combined_small.mp4	displayAnswer	31 or more	669.536082822	not applicable	not applicable	not applicable	not applicable	not applicable	not applicable	not applicable	not applicable	not applicable	not applicable	not applicable	not applicable
672.011	0.049	35	04_S9_combined_small.mp4	fixationPostAnswer	not applicable	not applicable	not applicable	not applicable	not applicable	not applicable	not applicable	not applicable	not applicable	not applicable	not applicable	not applicable	not applicable	not applicable
672.06	5.979	35	04_S9_combined_small.mp4	displayCuriosity	6	677.986043818004	not applicable	not applicable	not applicable	not applicable	not applicable	not applicable	not applicable	not applicable	not applicable	not applicable	not applicable	not applicable
678.039	4.003	35	04_S9_combined_small.mp4	fixationPostCuriosity	not applicable	not applicable	not applicable	not applicable	not applicable	not applicable	not applicable	not applicable	not applicable	not applicable	not applicable	not applicable	not applicable	not applicable
684.01	6.036	36	14_K19_long_combined_small.mp4	displayMockVid	not applicable	not applicable	not applicable	not applicable	not applicable	not applicable	not applicable	not applicable	not applicable	not applicable	not applicable	not applicable	not applicable	not applicable
690.046	31.812	36	14_K19_long_combined_small.mp4	displayVid	not applicable	not applicable	one of the red objects grew bigger 	forgotten	forgotten	The red balls are placed under the mug and merge to become a form a larger ball.	5	forgotten	forgotten	forgotten	forgotten	forgotten	forgotten	forgotten
721.994	10	36	14_K19_long_combined_small.mp4	fixationPostVid	not applicable	not applicable	not applicable	not applicable	not applicable	not applicable	not applicable	not applicable	not applicable	not applicable	not applicable	not applicable	not applicable	not applicable
731.993	6	36	14_K19_long_combined_small.mp4	displayAnswer	0 to 10	732.526358193005	not applicable	not applicable	not applicable	not applicable	not applicable	not applicable	not applicable	not applicable	not applicable	not applicable	not applicable	not applicable
737.993	0.05	36	14_K19_long_combined_small.mp4	fixationPostAnswer	not applicable	not applicable	not applicable	not applicable	not applicable	not applicable	not applicable	not applicable	not applicable	not applicable	not applicable	not applicable	not applicable	not applicable
738.042	5.978	36	14_K19_long_combined_small.mp4	displayCuriosity	7	743.967498774	not applicable	not applicable	not applicable	not applicable	not applicable	not applicable	not applicable	not applicable	not applicable	not applicable	not applicable	not applicable
744.02	4.003	36	14_K19_long_combined_small.mp4	fixationPostCuriosity	not applicable	not applicable	not applicable	not applicable	not applicable	not applicable	not applicable	not applicable	not applicable	not applicable	not applicable	not applicable	not applicable	not applicable
