onset	duration	trial	stim_file	event	response	response_timestamp	response_recall	trial_type_cuedRecallStrict	trial_type_cuedRecallLenient	response_recognition	response_confidence	trial_type_allConf	trial_type_highConf	trial_type_aboveAvgConf	trial_type_rememberedStrictAboveAvg	trial_type_rememberedLenientAboveAvg	trial_type_rememberedStrictHigh	trial_type_rememberedLenientHigh
2.001	6.037	25	14_K19_long_combined_small.mp4	displayMockVid	not applicable	not applicable	not applicable	not applicable	not applicable	not applicable	not applicable	not applicable	not applicable	not applicable	not applicable	not applicable	not applicable	not applicable
8.038	31.809	25	14_K19_long_combined_small.mp4	displayVid	not applicable	not applicable	No recall	forgotten	forgotten	The red balls are placed under the mug and merge to become a form a larger ball.	4	forgotten	forgotten	forgotten	forgotten	forgotten	forgotten	forgotten
39.997	4.003	25	14_K19_long_combined_small.mp4	fixationPostVid	not applicable	not applicable	not applicable	not applicable	not applicable	not applicable	not applicable	not applicable	not applicable	not applicable	not applicable	not applicable	not applicable	not applicable
44	6.002	25	14_K19_long_combined_small.mp4	displayAnswer	0 to 10	45.0890431999869	not applicable	not applicable	not applicable	not applicable	not applicable	not applicable	not applicable	not applicable	not applicable	not applicable	not applicable	not applicable
50.003	0.05	25	14_K19_long_combined_small.mp4	fixationPostAnswer	not applicable	not applicable	not applicable	not applicable	not applicable	not applicable	not applicable	not applicable	not applicable	not applicable	not applicable	not applicable	not applicable	not applicable
50.053	5.95	25	14_K19_long_combined_small.mp4	displayCuriosity	5	52.5109648469952	not applicable	not applicable	not applicable	not applicable	not applicable	not applicable	not applicable	not applicable	not applicable	not applicable	not applicable	not applicable
56.003	8	25	14_K19_long_combined_small.mp4	fixationPostCuriosity	not applicable	not applicable	not applicable	not applicable	not applicable	not applicable	not applicable	not applicable	not applicable	not applicable	not applicable	not applicable	not applicable	not applicable
65.998	6.039	26	28_K24_combined_small.mp4	displayMockVid	not applicable	not applicable	not applicable	not applicable	not applicable	not applicable	not applicable	not applicable	not applicable	not applicable	not applicable	not applicable	not applicable	not applicable
72.037	24.219	26	28_K24_combined_small.mp4	displayVid	not applicable	not applicable	He puts a pencil through the note	forgotten	forgotten	The note is folded so small that it disappears.	4	forgotten	forgotten	forgotten	forgotten	forgotten	forgotten	forgotten
98.003	3.999	26	28_K24_combined_small.mp4	fixationPostVid	not applicable	not applicable	not applicable	not applicable	not applicable	not applicable	not applicable	not applicable	not applicable	not applicable	not applicable	not applicable	not applicable	not applicable
102.002	6	26	28_K24_combined_small.mp4	displayAnswer	0 to 10	103.057934712007	not applicable	not applicable	not applicable	not applicable	not applicable	not applicable	not applicable	not applicable	not applicable	not applicable	not applicable	not applicable
108.002	0.049	26	28_K24_combined_small.mp4	fixationPostAnswer	not applicable	not applicable	not applicable	not applicable	not applicable	not applicable	not applicable	not applicable	not applicable	not applicable	not applicable	not applicable	not applicable	not applicable
108.051	5.947	26	28_K24_combined_small.mp4	displayCuriosity	5	109.871020800987	not applicable	not applicable	not applicable	not applicable	not applicable	not applicable	not applicable	not applicable	not applicable	not applicable	not applicable	not applicable
113.998	4.003	26	28_K24_combined_small.mp4	fixationPostCuriosity	not applicable	not applicable	not applicable	not applicable	not applicable	not applicable	not applicable	not applicable	not applicable	not applicable	not applicable	not applicable	not applicable	not applicable
120.002	6.035	27	24_Trick28_combined_small.mp4	displayMockVid	not applicable	not applicable	not applicable	not applicable	not applicable	not applicable	not applicable	not applicable	not applicable	not applicable	not applicable	not applicable	not applicable	not applicable
126.037	40.452	27	24_Trick28_combined_small.mp4	displayVid	not applicable	not applicable	Think he gives the metal slinky to the other participant to solve	forgotten	forgotten	The magician firstly puts the rings around his arms, but after he turns around, the volunteer has them around their arms.	2	forgotten	forgotten	forgotten	forgotten	forgotten	forgotten	forgotten
168.003	3.999	27	24_Trick28_combined_small.mp4	fixationPostVid	not applicable	not applicable	not applicable	not applicable	not applicable	not applicable	not applicable	not applicable	not applicable	not applicable	not applicable	not applicable	not applicable	not applicable
172.002	6	27	24_Trick28_combined_small.mp4	displayAnswer	11 to 20	173.347147969995	not applicable	not applicable	not applicable	not applicable	not applicable	not applicable	not applicable	not applicable	not applicable	not applicable	not applicable	not applicable
178.001	0.05	27	24_Trick28_combined_small.mp4	fixationPostAnswer	not applicable	not applicable	not applicable	not applicable	not applicable	not applicable	not applicable	not applicable	not applicable	not applicable	not applicable	not applicable	not applicable	not applicable
178.051	5.948	27	24_Trick28_combined_small.mp4	displayCuriosity	4	179.962557572988	not applicable	not applicable	not applicable	not applicable	not applicable	not applicable	not applicable	not applicable	not applicable	not applicable	not applicable	not applicable
183.999	4.002	27	24_Trick28_combined_small.mp4	fixationPostCuriosity	not applicable	not applicable	not applicable	not applicable	not applicable	not applicable	not applicable	not applicable	not applicable	not applicable	not applicable	not applicable	not applicable	not applicable
190.002	6.023	28	21_S15_combined_small.mp4	displayMockVid	not applicable	not applicable	not applicable	not applicable	not applicable	not applicable	not applicable	not applicable	not applicable	not applicable	not applicable	not applicable	not applicable	not applicable
196.025	31.98	28	21_S15_combined_small.mp4	displayVid	not applicable	not applicable	No recall	forgotten	forgotten	The magician puts the ring into the glass and starts tossing it around until the ring is around the stem.	5	forgotten	forgotten	forgotten	forgotten	forgotten	forgotten	forgotten
230	4.001	28	21_S15_combined_small.mp4	fixationPostVid	not applicable	not applicable	not applicable	not applicable	not applicable	not applicable	not applicable	not applicable	not applicable	not applicable	not applicable	not applicable	not applicable	not applicable
234.001	5.999	28	21_S15_combined_small.mp4	displayAnswer	21 to 30	235.908531866007	not applicable	not applicable	not applicable	not applicable	not applicable	not applicable	not applicable	not applicable	not applicable	not applicable	not applicable	not applicable
240	0.051	28	21_S15_combined_small.mp4	fixationPostAnswer	not applicable	not applicable	not applicable	not applicable	not applicable	not applicable	not applicable	not applicable	not applicable	not applicable	not applicable	not applicable	not applicable	not applicable
240.05	5.95	28	21_S15_combined_small.mp4	displayCuriosity	2	241.905848375987	not applicable	not applicable	not applicable	not applicable	not applicable	not applicable	not applicable	not applicable	not applicable	not applicable	not applicable	not applicable
246.001	3.996	28	21_S15_combined_small.mp4	fixationPostCuriosity	not applicable	not applicable	not applicable	not applicable	not applicable	not applicable	not applicable	not applicable	not applicable	not applicable	not applicable	not applicable	not applicable	not applicable
251.999	6.002	29	11_K21_long_combined_small.mp4	displayMockVid	not applicable	not applicable	not applicable	not applicable	not applicable	not applicable	not applicable	not applicable	not applicable	not applicable	not applicable	not applicable	not applicable	not applicable
258.002	43.818	29	11_K21_long_combined_small.mp4	displayVid	not applicable	not applicable	No recall	forgotten	forgotten	The magician flips the middle card over with a slight gesture and then changes the colour of the back of the card from blue to red.	5	remembered	remembered	remembered	remembered	remembered	remembered	remembered
302	5.999	29	11_K21_long_combined_small.mp4	fixationPostVid	not applicable	not applicable	not applicable	not applicable	not applicable	not applicable	not applicable	not applicable	not applicable	not applicable	not applicable	not applicable	not applicable	not applicable
307.999	6	29	11_K21_long_combined_small.mp4	displayAnswer	11 to 20	310.680840404006	not applicable	not applicable	not applicable	not applicable	not applicable	not applicable	not applicable	not applicable	not applicable	not applicable	not applicable	not applicable
313.999	0.05	29	11_K21_long_combined_small.mp4	fixationPostAnswer	not applicable	not applicable	not applicable	not applicable	not applicable	not applicable	not applicable	not applicable	not applicable	not applicable	not applicable	not applicable	not applicable	not applicable
314.049	5.948	29	11_K21_long_combined_small.mp4	displayCuriosity	6	315.615334098984	not applicable	not applicable	not applicable	not applicable	not applicable	not applicable	not applicable	not applicable	not applicable	not applicable	not applicable	not applicable
319.997	4.002	29	11_K21_long_combined_small.mp4	fixationPostCuriosity	not applicable	not applicable	not applicable	not applicable	not applicable	not applicable	not applicable	not applicable	not applicable	not applicable	not applicable	not applicable	not applicable	not applicable
325.999	6.036	30	34_Trick38_combined_small.mp4	displayMockVid	not applicable	not applicable	not applicable	not applicable	not applicable	not applicable	not applicable	not applicable	not applicable	not applicable	not applicable	not applicable	not applicable	not applicable
332.035	27.411	30	34_Trick38_combined_small.mp4	displayVid	not applicable	not applicable	No recall	forgotten	forgotten	The magician makes a little bird figure appear under the silk handkerchief.	3	forgotten	forgotten	forgotten	forgotten	forgotten	forgotten	forgotten
359.994	4.001	30	34_Trick38_combined_small.mp4	fixationPostVid	not applicable	not applicable	not applicable	not applicable	not applicable	not applicable	not applicable	not applicable	not applicable	not applicable	not applicable	not applicable	not applicable	not applicable
363.995	6.003	30	34_Trick38_combined_small.mp4	displayAnswer	31 or more	364.395368864003	not applicable	not applicable	not applicable	not applicable	not applicable	not applicable	not applicable	not applicable	not applicable	not applicable	not applicable	not applicable
369.998	0.051	30	34_Trick38_combined_small.mp4	fixationPostAnswer	not applicable	not applicable	not applicable	not applicable	not applicable	not applicable	not applicable	not applicable	not applicable	not applicable	not applicable	not applicable	not applicable	not applicable
370.049	5.95	30	34_Trick38_combined_small.mp4	displayCuriosity	1	371.194551875989	not applicable	not applicable	not applicable	not applicable	not applicable	not applicable	not applicable	not applicable	not applicable	not applicable	not applicable	not applicable
375.999	4	30	34_Trick38_combined_small.mp4	fixationPostCuriosity	not applicable	not applicable	not applicable	not applicable	not applicable	not applicable	not applicable	not applicable	not applicable	not applicable	not applicable	not applicable	not applicable	not applicable
381.991	6.041	31	22_K18_combined_small.mp4	displayMockVid	not applicable	not applicable	not applicable	not applicable	not applicable	not applicable	not applicable	not applicable	not applicable	not applicable	not applicable	not applicable	not applicable	not applicable
388.032	22.217	31	22_K18_combined_small.mp4	displayVid	not applicable	not applicable	No recall	forgotten	forgotten	A pack of cards appears from a single piece of paper.	3	remembered	forgotten	forgotten	forgotten	forgotten	forgotten	forgotten
411.998	3.999	31	22_K18_combined_small.mp4	fixationPostVid	not applicable	not applicable	not applicable	not applicable	not applicable	not applicable	not applicable	not applicable	not applicable	not applicable	not applicable	not applicable	not applicable	not applicable
415.997	6	31	22_K18_combined_small.mp4	displayAnswer	0 to 10	416.429316327994	not applicable	not applicable	not applicable	not applicable	not applicable	not applicable	not applicable	not applicable	not applicable	not applicable	not applicable	not applicable
421.998	0.049	31	22_K18_combined_small.mp4	fixationPostAnswer	not applicable	not applicable	not applicable	not applicable	not applicable	not applicable	not applicable	not applicable	not applicable	not applicable	not applicable	not applicable	not applicable	not applicable
422.047	5.951	31	22_K18_combined_small.mp4	displayCuriosity	3	423.064098297007	not applicable	not applicable	not applicable	not applicable	not applicable	not applicable	not applicable	not applicable	not applicable	not applicable	not applicable	not applicable
427.998	7.999	31	22_K18_combined_small.mp4	fixationPostCuriosity	not applicable	not applicable	not applicable	not applicable	not applicable	not applicable	not applicable	not applicable	not applicable	not applicable	not applicable	not applicable	not applicable	not applicable
437.998	6.036	32	08_S12_combined_small.mp4	displayMockVid	not applicable	not applicable	not applicable	not applicable	not applicable	not applicable	not applicable	not applicable	not applicable	not applicable	not applicable	not applicable	not applicable	not applicable
444.033	41.901	32	08_S12_combined_small.mp4	displayVid	not applicable	not applicable	Punches holes in the card then folds it in a specific way to present a pattern	forgotten	forgotten	The magician punches a hole in the card. He then moves the hole from one corner to another before finally revealing that it is actually a black spot on the card.	3	remembered	forgotten	forgotten	forgotten	forgotten	forgotten	forgotten
485.997	3.999	32	08_S12_combined_small.mp4	fixationPostVid	not applicable	not applicable	not applicable	not applicable	not applicable	not applicable	not applicable	not applicable	not applicable	not applicable	not applicable	not applicable	not applicable	not applicable
489.996	6.001	32	08_S12_combined_small.mp4	displayAnswer	0 to 10	490.70206245099	not applicable	not applicable	not applicable	not applicable	not applicable	not applicable	not applicable	not applicable	not applicable	not applicable	not applicable	not applicable
495.997	0.05	32	08_S12_combined_small.mp4	fixationPostAnswer	not applicable	not applicable	not applicable	not applicable	not applicable	not applicable	not applicable	not applicable	not applicable	not applicable	not applicable	not applicable	not applicable	not applicable
496.047	5.948	32	08_S12_combined_small.mp4	displayCuriosity	3	497.902726237982	not applicable	not applicable	not applicable	not applicable	not applicable	not applicable	not applicable	not applicable	not applicable	not applicable	not applicable	not applicable
501.994	4.003	32	08_S12_combined_small.mp4	fixationPostCuriosity	not applicable	not applicable	not applicable	not applicable	not applicable	not applicable	not applicable	not applicable	not applicable	not applicable	not applicable	not applicable	not applicable	not applicable
507.997	6.024	33	04_S9_combined_small.mp4	displayMockVid	not applicable	not applicable	not applicable	not applicable	not applicable	not applicable	not applicable	not applicable	not applicable	not applicable	not applicable	not applicable	not applicable	not applicable
514.022	32.458	33	04_S9_combined_small.mp4	displayVid	not applicable	not applicable	No recall	forgotten	forgotten	The magician shows a card and then pulls the correct card from a shuffled deck.	3	forgotten	forgotten	forgotten	forgotten	forgotten	forgotten	forgotten
547.995	4.001	33	04_S9_combined_small.mp4	fixationPostVid	not applicable	not applicable	not applicable	not applicable	not applicable	not applicable	not applicable	not applicable	not applicable	not applicable	not applicable	not applicable	not applicable	not applicable
551.996	6.001	33	04_S9_combined_small.mp4	displayAnswer	21 to 30	553.773434957984	not applicable	not applicable	not applicable	not applicable	not applicable	not applicable	not applicable	not applicable	not applicable	not applicable	not applicable	not applicable
557.997	0.048	33	04_S9_combined_small.mp4	fixationPostAnswer	not applicable	not applicable	not applicable	not applicable	not applicable	not applicable	not applicable	not applicable	not applicable	not applicable	not applicable	not applicable	not applicable	not applicable
558.046	5.95	33	04_S9_combined_small.mp4	displayCuriosity	3	559.802814424998	not applicable	not applicable	not applicable	not applicable	not applicable	not applicable	not applicable	not applicable	not applicable	not applicable	not applicable	not applicable
563.996	3.997	33	04_S9_combined_small.mp4	fixationPostCuriosity	not applicable	not applicable	not applicable	not applicable	not applicable	not applicable	not applicable	not applicable	not applicable	not applicable	not applicable	not applicable	not applicable	not applicable
569.994	6.037	34	15_S18_combined_small.mp4	displayMockVid	not applicable	not applicable	not applicable	not applicable	not applicable	not applicable	not applicable	not applicable	not applicable	not applicable	not applicable	not applicable	not applicable	not applicable
576.031	31.935	34	15_S18_combined_small.mp4	displayVid	not applicable	not applicable	No recall	forgotten	forgotten	The magician pulls three boxes containing flowers from a paper bag.	3	remembered	forgotten	forgotten	forgotten	forgotten	forgotten	forgotten
607.989	4.003	34	15_S18_combined_small.mp4	fixationPostVid	not applicable	not applicable	not applicable	not applicable	not applicable	not applicable	not applicable	not applicable	not applicable	not applicable	not applicable	not applicable	not applicable	not applicable
611.992	6.003	34	15_S18_combined_small.mp4	displayAnswer	0 to 10	612.322602539003	not applicable	not applicable	not applicable	not applicable	not applicable	not applicable	not applicable	not applicable	not applicable	not applicable	not applicable	not applicable
617.995	0.049	34	15_S18_combined_small.mp4	fixationPostAnswer	not applicable	not applicable	not applicable	not applicable	not applicable	not applicable	not applicable	not applicable	not applicable	not applicable	not applicable	not applicable	not applicable	not applicable
618.044	5.951	34	15_S18_combined_small.mp4	displayCuriosity	6	619.133479348005	not applicable	not applicable	not applicable	not applicable	not applicable	not applicable	not applicable	not applicable	not applicable	not applicable	not applicable	not applicable
623.995	9.996	34	15_S18_combined_small.mp4	fixationPostCuriosity	not applicable	not applicable	not applicable	not applicable	not applicable	not applicable	not applicable	not applicable	not applicable	not applicable	not applicable	not applicable	not applicable	not applicable
635.991	6.039	35	19_H17_combined_small.mp4	displayMockVid	not applicable	not applicable	not applicable	not applicable	not applicable	not applicable	not applicable	not applicable	not applicable	not applicable	not applicable	not applicable	not applicable	not applicable
642.03	46.617	35	19_H17_combined_small.mp4	displayVid	not applicable	not applicable	No recall	forgotten	forgotten	The magician uses a guillotine to slice breadsticks, but not the volunteer's finger.	5	remembered	remembered	remembered	remembered	remembered	remembered	remembered
689.995	4	35	19_H17_combined_small.mp4	fixationPostVid	not applicable	not applicable	not applicable	not applicable	not applicable	not applicable	not applicable	not applicable	not applicable	not applicable	not applicable	not applicable	not applicable	not applicable
693.995	6	35	19_H17_combined_small.mp4	displayAnswer	0 to 10	694.884633527981	not applicable	not applicable	not applicable	not applicable	not applicable	not applicable	not applicable	not applicable	not applicable	not applicable	not applicable	not applicable
699.994	0.049	35	19_H17_combined_small.mp4	fixationPostAnswer	not applicable	not applicable	not applicable	not applicable	not applicable	not applicable	not applicable	not applicable	not applicable	not applicable	not applicable	not applicable	not applicable	not applicable
700.043	5.948	35	19_H17_combined_small.mp4	displayCuriosity	7	701.776520557003	not applicable	not applicable	not applicable	not applicable	not applicable	not applicable	not applicable	not applicable	not applicable	not applicable	not applicable	not applicable
705.991	4.003	35	19_H17_combined_small.mp4	fixationPostCuriosity	not applicable	not applicable	not applicable	not applicable	not applicable	not applicable	not applicable	not applicable	not applicable	not applicable	not applicable	not applicable	not applicable	not applicable
711.994	6.035	36	01_H35_combined_small.mp4	displayMockVid	not applicable	not applicable	not applicable	not applicable	not applicable	not applicable	not applicable	not applicable	not applicable	not applicable	not applicable	not applicable	not applicable	not applicable
718.029	37.652	36	01_H35_combined_small.mp4	displayVid	not applicable	not applicable	No recall	forgotten	forgotten	The volunteer signs a card that is placed into the Ziploc bag, but then appears in the card box.	4	forgotten	forgotten	forgotten	forgotten	forgotten	forgotten	forgotten
755.996	9.997	36	01_H35_combined_small.mp4	fixationPostVid	not applicable	not applicable	not applicable	not applicable	not applicable	not applicable	not applicable	not applicable	not applicable	not applicable	not applicable	not applicable	not applicable	not applicable
765.993	5.997	36	01_H35_combined_small.mp4	displayAnswer	11 to 20	766.369954748981	not applicable	not applicable	not applicable	not applicable	not applicable	not applicable	not applicable	not applicable	not applicable	not applicable	not applicable	not applicable
771.99	0.049	36	01_H35_combined_small.mp4	fixationPostAnswer	not applicable	not applicable	not applicable	not applicable	not applicable	not applicable	not applicable	not applicable	not applicable	not applicable	not applicable	not applicable	not applicable	not applicable
772.039	5.954	36	01_H35_combined_small.mp4	displayCuriosity	5	775.638503335998	not applicable	not applicable	not applicable	not applicable	not applicable	not applicable	not applicable	not applicable	not applicable	not applicable	not applicable	not applicable
777.993	4	36	01_H35_combined_small.mp4	fixationPostCuriosity	not applicable	not applicable	not applicable	not applicable	not applicable	not applicable	not applicable	not applicable	not applicable	not applicable	not applicable	not applicable	not applicable	not applicable
