onset	duration	trial	stim_file	event	response	response_timestamp	response_recall	trial_type_cuedRecallStrict	trial_type_cuedRecallLenient	response_recognition	response_confidence	trial_type_allConf	trial_type_highConf	trial_type_aboveAvgConf	trial_type_rememberedStrictAboveAvg	trial_type_rememberedLenientAboveAvg	trial_type_rememberedStrictHigh	trial_type_rememberedLenientHigh
2.002	6.007	1	06_H7_combined_small.mp4	displayMockVid	not applicable	not applicable	not applicable	not applicable	not applicable	not applicable	not applicable	not applicable	not applicable	not applicable	not applicable	not applicable	not applicable	not applicable
8.009	34.451	1	06_H7_combined_small.mp4	displayVid	not applicable	not applicable	no recall 	forgotten	forgotten	The magician wraps the salt shaker in the cloth and makes it disappear.	3	forgotten	forgotten	forgotten	forgotten	forgotten	forgotten	forgotten
44	4.003	1	06_H7_combined_small.mp4	fixationPostVid	not applicable	not applicable	not applicable	not applicable	not applicable	not applicable	not applicable	not applicable	not applicable	not applicable	not applicable	not applicable	not applicable	not applicable
48.004	6.003	1	06_H7_combined_small.mp4	displayAnswer	11 to 20	48.9200494579854	not applicable	not applicable	not applicable	not applicable	not applicable	not applicable	not applicable	not applicable	not applicable	not applicable	not applicable	not applicable
54.006	0.066	1	06_H7_combined_small.mp4	fixationPostAnswer	not applicable	not applicable	not applicable	not applicable	not applicable	not applicable	not applicable	not applicable	not applicable	not applicable	not applicable	not applicable	not applicable	not applicable
54.072	5.949	1	06_H7_combined_small.mp4	displayCuriosity	3	57.9453917919891	not applicable	not applicable	not applicable	not applicable	not applicable	not applicable	not applicable	not applicable	not applicable	not applicable	not applicable	not applicable
60.022	4.001	1	06_H7_combined_small.mp4	fixationPostCuriosity	not applicable	not applicable	not applicable	not applicable	not applicable	not applicable	not applicable	not applicable	not applicable	not applicable	not applicable	not applicable	not applicable	not applicable
65.998	6.01	2	19_H17_combined_small.mp4	displayMockVid	not applicable	not applicable	not applicable	not applicable	not applicable	not applicable	not applicable	not applicable	not applicable	not applicable	not applicable	not applicable	not applicable	not applicable
72.008	46.662	2	19_H17_combined_small.mp4	displayVid	not applicable	not applicable	The black device was able to cut through the pretz but did not cut the finger of the particpant 	remembered	remembered	The magician uses a guillotine to slice breadsticks, but not the volunteer's finger.	6	remembered	remembered	remembered	remembered	remembered	remembered	remembered
120.004	4	2	19_H17_combined_small.mp4	fixationPostVid	not applicable	not applicable	not applicable	not applicable	not applicable	not applicable	not applicable	not applicable	not applicable	not applicable	not applicable	not applicable	not applicable	not applicable
124.004	6	2	19_H17_combined_small.mp4	displayAnswer	21 to 30	124.948899131006	not applicable	not applicable	not applicable	not applicable	not applicable	not applicable	not applicable	not applicable	not applicable	not applicable	not applicable	not applicable
130.004	0.05	2	19_H17_combined_small.mp4	fixationPostAnswer	not applicable	not applicable	not applicable	not applicable	not applicable	not applicable	not applicable	not applicable	not applicable	not applicable	not applicable	not applicable	not applicable	not applicable
130.054	5.95	2	19_H17_combined_small.mp4	displayCuriosity	6	135.265100544988	not applicable	not applicable	not applicable	not applicable	not applicable	not applicable	not applicable	not applicable	not applicable	not applicable	not applicable	not applicable
136.004	8.001	2	19_H17_combined_small.mp4	fixationPostCuriosity	not applicable	not applicable	not applicable	not applicable	not applicable	not applicable	not applicable	not applicable	not applicable	not applicable	not applicable	not applicable	not applicable	not applicable
146.004	6.035	3	24_Trick28_combined_small.mp4	displayMockVid	not applicable	not applicable	not applicable	not applicable	not applicable	not applicable	not applicable	not applicable	not applicable	not applicable	not applicable	not applicable	not applicable	not applicable
152.039	40.468	3	24_Trick28_combined_small.mp4	displayVid	not applicable	not applicable	The hoops all became joined togather 	remembered	remembered	The magician links and unlinks several silver rings while the rings shape their appearance once they get linked.	3	forgotten	forgotten	forgotten	remembered	remembered	remembered	remembered
194.005	3.998	3	24_Trick28_combined_small.mp4	fixationPostVid	not applicable	not applicable	not applicable	not applicable	not applicable	not applicable	not applicable	not applicable	not applicable	not applicable	not applicable	not applicable	not applicable	not applicable
198.003	6	3	24_Trick28_combined_small.mp4	displayAnswer	11 to 20	199.716038440994	not applicable	not applicable	not applicable	not applicable	not applicable	not applicable	not applicable	not applicable	not applicable	not applicable	not applicable	not applicable
204.004	0.049	3	24_Trick28_combined_small.mp4	fixationPostAnswer	not applicable	not applicable	not applicable	not applicable	not applicable	not applicable	not applicable	not applicable	not applicable	not applicable	not applicable	not applicable	not applicable	not applicable
204.053	5.948	3	24_Trick28_combined_small.mp4	displayCuriosity	5	207.584211164009	not applicable	not applicable	not applicable	not applicable	not applicable	not applicable	not applicable	not applicable	not applicable	not applicable	not applicable	not applicable
210.002	10.002	3	24_Trick28_combined_small.mp4	fixationPostCuriosity	not applicable	not applicable	not applicable	not applicable	not applicable	not applicable	not applicable	not applicable	not applicable	not applicable	not applicable	not applicable	not applicable	not applicable
222.004	6.029	4	15_S18_combined_small.mp4	displayMockVid	not applicable	not applicable	not applicable	not applicable	not applicable	not applicable	not applicable	not applicable	not applicable	not applicable	not applicable	not applicable	not applicable	not applicable
228.033	31.939	4	15_S18_combined_small.mp4	displayVid	not applicable	not applicable	The bag collapsed and turned into a different colour bag 	forgotten	forgotten	The magician pulls three boxes containing flowers from a paper bag.	4	remembered	remembered	remembered	remembered	remembered	remembered	remembered
260.005	4	4	15_S18_combined_small.mp4	fixationPostVid	not applicable	not applicable	not applicable	not applicable	not applicable	not applicable	not applicable	not applicable	not applicable	not applicable	not applicable	not applicable	not applicable	not applicable
264.005	5.998	4	15_S18_combined_small.mp4	displayAnswer	31 or more	267.046772383008	not applicable	not applicable	not applicable	not applicable	not applicable	not applicable	not applicable	not applicable	not applicable	not applicable	not applicable	not applicable
270.003	0.049	4	15_S18_combined_small.mp4	fixationPostAnswer	not applicable	not applicable	not applicable	not applicable	not applicable	not applicable	not applicable	not applicable	not applicable	not applicable	not applicable	not applicable	not applicable	not applicable
270.052	5.95	4	15_S18_combined_small.mp4	displayCuriosity	3	274.158098210988	not applicable	not applicable	not applicable	not applicable	not applicable	not applicable	not applicable	not applicable	not applicable	not applicable	not applicable	not applicable
276.001	4.001	4	15_S18_combined_small.mp4	fixationPostCuriosity	not applicable	not applicable	not applicable	not applicable	not applicable	not applicable	not applicable	not applicable	not applicable	not applicable	not applicable	not applicable	not applicable	not applicable
282.004	6.034	5	28_K24_combined_small.mp4	displayMockVid	not applicable	not applicable	not applicable	not applicable	not applicable	not applicable	not applicable	not applicable	not applicable	not applicable	not applicable	not applicable	not applicable	not applicable
288.038	24.217	5	28_K24_combined_small.mp4	displayVid	not applicable	not applicable	10 pound note turned into a 20 pound note 	remembered	remembered	A £10 note is transformed into a £20  note.	5	remembered	remembered	remembered	remembered	remembered	remembered	remembered
314.002	4	5	28_K24_combined_small.mp4	fixationPostVid	not applicable	not applicable	not applicable	not applicable	not applicable	not applicable	not applicable	not applicable	not applicable	not applicable	not applicable	not applicable	not applicable	not applicable
318.003	5.998	5	28_K24_combined_small.mp4	displayAnswer	21 to 30	319.827384748001	not applicable	not applicable	not applicable	not applicable	not applicable	not applicable	not applicable	not applicable	not applicable	not applicable	not applicable	not applicable
324.001	0.05	5	28_K24_combined_small.mp4	fixationPostAnswer	not applicable	not applicable	not applicable	not applicable	not applicable	not applicable	not applicable	not applicable	not applicable	not applicable	not applicable	not applicable	not applicable	not applicable
324.051	5.951	5	28_K24_combined_small.mp4	displayCuriosity	6	325.896362906002	not applicable	not applicable	not applicable	not applicable	not applicable	not applicable	not applicable	not applicable	not applicable	not applicable	not applicable	not applicable
330.002	4.001	5	28_K24_combined_small.mp4	fixationPostCuriosity	not applicable	not applicable	not applicable	not applicable	not applicable	not applicable	not applicable	not applicable	not applicable	not applicable	not applicable	not applicable	not applicable	not applicable
336.002	6.03	6	36_Trick7_short_combined_small.mp4	displayMockVid	not applicable	not applicable	not applicable	not applicable	not applicable	not applicable	not applicable	not applicable	not applicable	not applicable	not applicable	not applicable	not applicable	not applicable
342.032	20.622	6	36_Trick7_short_combined_small.mp4	displayVid	not applicable	not applicable	The orange balls mutiplied 	forgotten	forgotten	The magician gets the volunteer to hold a foam ball, which he then transforms into  two balls.	3	remembered	forgotten	forgotten	forgotten	forgotten	forgotten	forgotten
363.997	4.003	6	36_Trick7_short_combined_small.mp4	fixationPostVid	not applicable	not applicable	not applicable	not applicable	not applicable	not applicable	not applicable	not applicable	not applicable	not applicable	not applicable	not applicable	not applicable	not applicable
368	6.001	6	36_Trick7_short_combined_small.mp4	displayAnswer	0 to 10	369.566369617009	not applicable	not applicable	not applicable	not applicable	not applicable	not applicable	not applicable	not applicable	not applicable	not applicable	not applicable	not applicable
374.001	0.049	6	36_Trick7_short_combined_small.mp4	fixationPostAnswer	not applicable	not applicable	not applicable	not applicable	not applicable	not applicable	not applicable	not applicable	not applicable	not applicable	not applicable	not applicable	not applicable	not applicable
374.05	5.95	6	36_Trick7_short_combined_small.mp4	displayCuriosity	7	376.855596506997	not applicable	not applicable	not applicable	not applicable	not applicable	not applicable	not applicable	not applicable	not applicable	not applicable	not applicable	not applicable
380.001	4	6	36_Trick7_short_combined_small.mp4	fixationPostCuriosity	not applicable	not applicable	not applicable	not applicable	not applicable	not applicable	not applicable	not applicable	not applicable	not applicable	not applicable	not applicable	not applicable	not applicable
386.001	6.034	7	20_Trick20_short_combined_small.mp4	displayMockVid	not applicable	not applicable	not applicable	not applicable	not applicable	not applicable	not applicable	not applicable	not applicable	not applicable	not applicable	not applicable	not applicable	not applicable
392.035	26.133	7	20_Trick20_short_combined_small.mp4	displayVid	not applicable	not applicable	The piece of metal became threaded through the rope 	forgotten	forgotten	The magician ties rope around the nut, but is not able to remove it afterwards as it seems that the nut has shrunk.	3	forgotten	forgotten	forgotten	forgotten	forgotten	forgotten	forgotten
420.002	4	7	20_Trick20_short_combined_small.mp4	fixationPostVid	not applicable	not applicable	not applicable	not applicable	not applicable	not applicable	not applicable	not applicable	not applicable	not applicable	not applicable	not applicable	not applicable	not applicable
424.001	6	7	20_Trick20_short_combined_small.mp4	displayAnswer	21 to 30	425.762298191985	not applicable	not applicable	not applicable	not applicable	not applicable	not applicable	not applicable	not applicable	not applicable	not applicable	not applicable	not applicable
430.001	0.049	7	20_Trick20_short_combined_small.mp4	fixationPostAnswer	not applicable	not applicable	not applicable	not applicable	not applicable	not applicable	not applicable	not applicable	not applicable	not applicable	not applicable	not applicable	not applicable	not applicable
430.05	5.947	7	20_Trick20_short_combined_small.mp4	displayCuriosity	3	433.802493497991	not applicable	not applicable	not applicable	not applicable	not applicable	not applicable	not applicable	not applicable	not applicable	not applicable	not applicable	not applicable
435.998	4.003	7	20_Trick20_short_combined_small.mp4	fixationPostCuriosity	not applicable	not applicable	not applicable	not applicable	not applicable	not applicable	not applicable	not applicable	not applicable	not applicable	not applicable	not applicable	not applicable	not applicable
442	6.035	8	12_H37_combined_small.mp4	displayMockVid	not applicable	not applicable	not applicable	not applicable	not applicable	not applicable	not applicable	not applicable	not applicable	not applicable	not applicable	not applicable	not applicable	not applicable
448.035	28.776	8	12_H37_combined_small.mp4	displayVid	not applicable	not applicable	Appeared as if the index finger became unatached/twisted 	remembered	remembered	The magician unscrews his own finger and then shakes it back into place.	6	remembered	remembered	remembered	remembered	remembered	remembered	remembered
477.996	6.004	8	12_H37_combined_small.mp4	fixationPostVid	not applicable	not applicable	not applicable	not applicable	not applicable	not applicable	not applicable	not applicable	not applicable	not applicable	not applicable	not applicable	not applicable	not applicable
484	6	8	12_H37_combined_small.mp4	displayAnswer	0 to 10	485.15670082299	not applicable	not applicable	not applicable	not applicable	not applicable	not applicable	not applicable	not applicable	not applicable	not applicable	not applicable	not applicable
490	0.049	8	12_H37_combined_small.mp4	fixationPostAnswer	not applicable	not applicable	not applicable	not applicable	not applicable	not applicable	not applicable	not applicable	not applicable	not applicable	not applicable	not applicable	not applicable	not applicable
490.049	5.95	8	12_H37_combined_small.mp4	displayCuriosity	6	492.806936503999	not applicable	not applicable	not applicable	not applicable	not applicable	not applicable	not applicable	not applicable	not applicable	not applicable	not applicable	not applicable
495.999	4	8	12_H37_combined_small.mp4	fixationPostCuriosity	not applicable	not applicable	not applicable	not applicable	not applicable	not applicable	not applicable	not applicable	not applicable	not applicable	not applicable	not applicable	not applicable	not applicable
501.995	6.04	9	04_S9_combined_small.mp4	displayMockVid	not applicable	not applicable	not applicable	not applicable	not applicable	not applicable	not applicable	not applicable	not applicable	not applicable	not applicable	not applicable	not applicable	not applicable
508.035	32.449	9	04_S9_combined_small.mp4	displayVid	not applicable	not applicable	no recall	forgotten	forgotten	The cards magically change their appearance.	2	remembered	forgotten	forgotten	forgotten	forgotten	forgotten	forgotten
541.999	4	9	04_S9_combined_small.mp4	fixationPostVid	not applicable	not applicable	not applicable	not applicable	not applicable	not applicable	not applicable	not applicable	not applicable	not applicable	not applicable	not applicable	not applicable	not applicable
545.999	6	9	04_S9_combined_small.mp4	displayAnswer	11 to 20	547.287806520006	not applicable	not applicable	not applicable	not applicable	not applicable	not applicable	not applicable	not applicable	not applicable	not applicable	not applicable	not applicable
551.998	0.05	9	04_S9_combined_small.mp4	fixationPostAnswer	not applicable	not applicable	not applicable	not applicable	not applicable	not applicable	not applicable	not applicable	not applicable	not applicable	not applicable	not applicable	not applicable	not applicable
552.048	5.95	9	04_S9_combined_small.mp4	displayCuriosity	7	553.155330128007	not applicable	not applicable	not applicable	not applicable	not applicable	not applicable	not applicable	not applicable	not applicable	not applicable	not applicable	not applicable
557.998	4	9	04_S9_combined_small.mp4	fixationPostCuriosity	not applicable	not applicable	not applicable	not applicable	not applicable	not applicable	not applicable	not applicable	not applicable	not applicable	not applicable	not applicable	not applicable	not applicable
563.999	6.031	10	33_S21_combined_small.mp4	displayMockVid	not applicable	not applicable	not applicable	not applicable	not applicable	not applicable	not applicable	not applicable	not applicable	not applicable	not applicable	not applicable	not applicable	not applicable
570.03	21.815	10	33_S21_combined_small.mp4	displayVid	not applicable	not applicable	The spoon bent back wards and then came apart when his hand hovered over the spoon. 	remembered	remembered	The magician bents the spoon only sing his pinkie as a force.	3	forgotten	forgotten	forgotten	remembered	remembered	remembered	remembered
591.994	6.005	10	33_S21_combined_small.mp4	fixationPostVid	not applicable	not applicable	not applicable	not applicable	not applicable	not applicable	not applicable	not applicable	not applicable	not applicable	not applicable	not applicable	not applicable	not applicable
597.999	5.998	10	33_S21_combined_small.mp4	displayAnswer	31 or more	599.131927028007	not applicable	not applicable	not applicable	not applicable	not applicable	not applicable	not applicable	not applicable	not applicable	not applicable	not applicable	not applicable
603.997	0.05	10	33_S21_combined_small.mp4	fixationPostAnswer	not applicable	not applicable	not applicable	not applicable	not applicable	not applicable	not applicable	not applicable	not applicable	not applicable	not applicable	not applicable	not applicable	not applicable
604.047	5.951	10	33_S21_combined_small.mp4	displayCuriosity	3	607.351663028006	not applicable	not applicable	not applicable	not applicable	not applicable	not applicable	not applicable	not applicable	not applicable	not applicable	not applicable	not applicable
609.998	5.995	10	33_S21_combined_small.mp4	fixationPostCuriosity	not applicable	not applicable	not applicable	not applicable	not applicable	not applicable	not applicable	not applicable	not applicable	not applicable	not applicable	not applicable	not applicable	not applicable
617.997	6.036	11	16_H19_combined_small.mp4	displayMockVid	not applicable	not applicable	not applicable	not applicable	not applicable	not applicable	not applicable	not applicable	not applicable	not applicable	not applicable	not applicable	not applicable	not applicable
624.033	22.616	11	16_H19_combined_small.mp4	displayVid	not applicable	not applicable	No recall	forgotten	forgotten	The magician places paper in volunteer's hand and sets it alight, revealing a red sponge ball.	3	remembered	forgotten	forgotten	forgotten	forgotten	forgotten	forgotten
647.998	4	11	16_H19_combined_small.mp4	fixationPostVid	not applicable	not applicable	not applicable	not applicable	not applicable	not applicable	not applicable	not applicable	not applicable	not applicable	not applicable	not applicable	not applicable	not applicable
651.997	6	11	16_H19_combined_small.mp4	displayAnswer	31 or more	654.067906831013	not applicable	not applicable	not applicable	not applicable	not applicable	not applicable	not applicable	not applicable	not applicable	not applicable	not applicable	not applicable
657.998	0.049	11	16_H19_combined_small.mp4	fixationPostAnswer	not applicable	not applicable	not applicable	not applicable	not applicable	not applicable	not applicable	not applicable	not applicable	not applicable	not applicable	not applicable	not applicable	not applicable
658.047	5.95	11	16_H19_combined_small.mp4	displayCuriosity	5	661.034343742009	not applicable	not applicable	not applicable	not applicable	not applicable	not applicable	not applicable	not applicable	not applicable	not applicable	not applicable	not applicable
663.997	10.001	11	16_H19_combined_small.mp4	fixationPostCuriosity	not applicable	not applicable	not applicable	not applicable	not applicable	not applicable	not applicable	not applicable	not applicable	not applicable	not applicable	not applicable	not applicable	not applicable
675.997	6.029	12	01_H35_combined_small.mp4	displayMockVid	not applicable	not applicable	not applicable	not applicable	not applicable	not applicable	not applicable	not applicable	not applicable	not applicable	not applicable	not applicable	not applicable	not applicable
682.027	37.663	12	01_H35_combined_small.mp4	displayVid	not applicable	not applicable	no recall 	forgotten	forgotten	The volunteer signs a card which the magician subsequently pulls from a Ziploc bag.	4	remembered	remembered	remembered	remembered	remembered	remembered	remembered
719.997	4	12	01_H35_combined_small.mp4	fixationPostVid	not applicable	not applicable	not applicable	not applicable	not applicable	not applicable	not applicable	not applicable	not applicable	not applicable	not applicable	not applicable	not applicable	not applicable
723.997	5.998	12	01_H35_combined_small.mp4	displayAnswer	0 to 10	725.218733485002	not applicable	not applicable	not applicable	not applicable	not applicable	not applicable	not applicable	not applicable	not applicable	not applicable	not applicable	not applicable
729.994	0.049	12	01_H35_combined_small.mp4	fixationPostAnswer	not applicable	not applicable	not applicable	not applicable	not applicable	not applicable	not applicable	not applicable	not applicable	not applicable	not applicable	not applicable	not applicable	not applicable
730.043	5.953	12	01_H35_combined_small.mp4	displayCuriosity	7	732.551013399992	not applicable	not applicable	not applicable	not applicable	not applicable	not applicable	not applicable	not applicable	not applicable	not applicable	not applicable	not applicable
735.997	3.999	12	01_H35_combined_small.mp4	fixationPostCuriosity	not applicable	not applicable	not applicable	not applicable	not applicable	not applicable	not applicable	not applicable	not applicable	not applicable	not applicable	not applicable	not applicable	not applicable
