onset	duration	trial	stim_file	event	response	response_timestamp	response_recall	trial_type_cuedRecallStrict	trial_type_cuedRecallLenient	response_recognition	response_confidence	trial_type_allConf	trial_type_highConf	trial_type_aboveAvgConf	trial_type_rememberedStrictAboveAvg	trial_type_rememberedLenientAboveAvg	trial_type_rememberedStrictHigh	trial_type_rememberedLenientHigh
1.984	6.019	1	26_S30_combined_small.mp4	displayMockVid	not applicable	not applicable	not applicable	not applicable	not applicable	not applicable	not applicable	not applicable	not applicable	not applicable	not applicable	not applicable	not applicable	not applicable
8.004	25.249	1	26_S30_combined_small.mp4	displayVid	not applicable	not applicable	string connects the two wands - pull them either side	remembered	remembered	The magician pulls string through two sticks which appear to be connected. However he then reveals thw two sticks are not connected at all.	5	remembered	remembered	remembered	remembered	remembered	remembered	remembered
33.993	4.003	1	26_S30_combined_small.mp4	fixationPostVid	not applicable	not applicable	not applicable	not applicable	not applicable	not applicable	not applicable	not applicable	not applicable	not applicable	not applicable	not applicable	not applicable	not applicable
37.996	6.004	1	26_S30_combined_small.mp4	displayAnswer	31 or more	39.9303426629922	not applicable	not applicable	not applicable	not applicable	not applicable	not applicable	not applicable	not applicable	not applicable	not applicable	not applicable	not applicable
43.999	0.083	1	26_S30_combined_small.mp4	fixationPostAnswer	not applicable	not applicable	not applicable	not applicable	not applicable	not applicable	not applicable	not applicable	not applicable	not applicable	not applicable	not applicable	not applicable	not applicable
44.082	5.988	1	26_S30_combined_small.mp4	displayCuriosity	3	50.008396018995	not applicable	not applicable	not applicable	not applicable	not applicable	not applicable	not applicable	not applicable	not applicable	not applicable	not applicable	not applicable
50.07	3.997	1	26_S30_combined_small.mp4	fixationPostCuriosity	not applicable	not applicable	not applicable	not applicable	not applicable	not applicable	not applicable	not applicable	not applicable	not applicable	not applicable	not applicable	not applicable	not applicable
55.99	6.04	2	18_Trick4_combined_small.mp4	displayMockVid	not applicable	not applicable	not applicable	not applicable	not applicable	not applicable	not applicable	not applicable	not applicable	not applicable	not applicable	not applicable	not applicable	not applicable
62.03	47.82	2	18_Trick4_combined_small.mp4	displayVid	not applicable	not applicable	something is inside the balloon empty the balloon of air and inside is an object wrapped in the balloon	remembered	remembered	The magician puts the mobile phone inside the balloon with a simple gesture of his hands.	2	remembered	forgotten	forgotten	remembered	remembered	remembered	remembered
109.997	4.003	2	18_Trick4_combined_small.mp4	fixationPostVid	not applicable	not applicable	not applicable	not applicable	not applicable	not applicable	not applicable	not applicable	not applicable	not applicable	not applicable	not applicable	not applicable	not applicable
114	5.999	2	18_Trick4_combined_small.mp4	displayAnswer	31 or more	115.249387235992	not applicable	not applicable	not applicable	not applicable	not applicable	not applicable	not applicable	not applicable	not applicable	not applicable	not applicable	not applicable
120	0.049	2	18_Trick4_combined_small.mp4	fixationPostAnswer	not applicable	not applicable	not applicable	not applicable	not applicable	not applicable	not applicable	not applicable	not applicable	not applicable	not applicable	not applicable	not applicable	not applicable
120.048	5.951	2	18_Trick4_combined_small.mp4	displayCuriosity	2	122.309833251988	not applicable	not applicable	not applicable	not applicable	not applicable	not applicable	not applicable	not applicable	not applicable	not applicable	not applicable	not applicable
125.999	7.998	2	18_Trick4_combined_small.mp4	fixationPostCuriosity	not applicable	not applicable	not applicable	not applicable	not applicable	not applicable	not applicable	not applicable	not applicable	not applicable	not applicable	not applicable	not applicable	not applicable
135.999	6.037	3	17_Trick37_combined_small.mp4	displayMockVid	not applicable	not applicable	not applicable	not applicable	not applicable	not applicable	not applicable	not applicable	not applicable	not applicable	not applicable	not applicable	not applicable	not applicable
142.035	46.288	3	17_Trick37_combined_small.mp4	displayVid	not applicable	not applicable	no recall	forgotten	forgotten	An elastic band visually travels from finger to finger.	1	remembered	forgotten	forgotten	forgotten	forgotten	forgotten	forgotten
189.989	4.002	3	17_Trick37_combined_small.mp4	fixationPostVid	not applicable	not applicable	not applicable	not applicable	not applicable	not applicable	not applicable	not applicable	not applicable	not applicable	not applicable	not applicable	not applicable	not applicable
193.991	6.005	3	17_Trick37_combined_small.mp4	displayAnswer	11 to 20	195.974723894993	not applicable	not applicable	not applicable	not applicable	not applicable	not applicable	not applicable	not applicable	not applicable	not applicable	not applicable	not applicable
199.996	0.05	3	17_Trick37_combined_small.mp4	fixationPostAnswer	not applicable	not applicable	not applicable	not applicable	not applicable	not applicable	not applicable	not applicable	not applicable	not applicable	not applicable	not applicable	not applicable	not applicable
200.045	5.953	3	17_Trick37_combined_small.mp4	displayCuriosity	6	201.923708060989	not applicable	not applicable	not applicable	not applicable	not applicable	not applicable	not applicable	not applicable	not applicable	not applicable	not applicable	not applicable
205.999	10	3	17_Trick37_combined_small.mp4	fixationPostCuriosity	not applicable	not applicable	not applicable	not applicable	not applicable	not applicable	not applicable	not applicable	not applicable	not applicable	not applicable	not applicable	not applicable	not applicable
217.991	6.025	4	28_K24_combined_small.mp4	displayMockVid	not applicable	not applicable	not applicable	not applicable	not applicable	not applicable	not applicable	not applicable	not applicable	not applicable	not applicable	not applicable	not applicable	not applicable
224.016	24.218	4	28_K24_combined_small.mp4	displayVid	not applicable	not applicable	folds up a ten pound note unfolds it as a 20 pound note	remembered	remembered	A £10 note is transformed into a £20  note.	6	remembered	remembered	remembered	remembered	remembered	remembered	remembered
249.999	3.999	4	28_K24_combined_small.mp4	fixationPostVid	not applicable	not applicable	not applicable	not applicable	not applicable	not applicable	not applicable	not applicable	not applicable	not applicable	not applicable	not applicable	not applicable	not applicable
253.998	6	4	28_K24_combined_small.mp4	displayAnswer	0 to 10	254.808024425991	not applicable	not applicable	not applicable	not applicable	not applicable	not applicable	not applicable	not applicable	not applicable	not applicable	not applicable	not applicable
259.998	0.049	4	28_K24_combined_small.mp4	fixationPostAnswer	not applicable	not applicable	not applicable	not applicable	not applicable	not applicable	not applicable	not applicable	not applicable	not applicable	not applicable	not applicable	not applicable	not applicable
260.047	5.95	4	28_K24_combined_small.mp4	displayCuriosity	5	262.748372653004	not applicable	not applicable	not applicable	not applicable	not applicable	not applicable	not applicable	not applicable	not applicable	not applicable	not applicable	not applicable
265.997	3.998	4	28_K24_combined_small.mp4	fixationPostCuriosity	not applicable	not applicable	not applicable	not applicable	not applicable	not applicable	not applicable	not applicable	not applicable	not applicable	not applicable	not applicable	not applicable	not applicable
271.996	6.037	5	19_H17_combined_small.mp4	displayMockVid	not applicable	not applicable	not applicable	not applicable	not applicable	not applicable	not applicable	not applicable	not applicable	not applicable	not applicable	not applicable	not applicable	not applicable
278.033	46.617	5	19_H17_combined_small.mp4	displayVid	not applicable	not applicable	puts the sticks in the guillotine it cuts them. puts the assistant's fingers in the guillotine and it does not cut her 	remembered	remembered	The magician uses a guillotine to slice breadsticks, but not the volunteer's finger.	5	remembered	remembered	remembered	remembered	remembered	remembered	remembered
325.986	4.003	5	19_H17_combined_small.mp4	fixationPostVid	not applicable	not applicable	not applicable	not applicable	not applicable	not applicable	not applicable	not applicable	not applicable	not applicable	not applicable	not applicable	not applicable	not applicable
329.989	6.004	5	19_H17_combined_small.mp4	displayAnswer	0 to 10	330.678130608983	not applicable	not applicable	not applicable	not applicable	not applicable	not applicable	not applicable	not applicable	not applicable	not applicable	not applicable	not applicable
335.993	0.05	5	19_H17_combined_small.mp4	fixationPostAnswer	not applicable	not applicable	not applicable	not applicable	not applicable	not applicable	not applicable	not applicable	not applicable	not applicable	not applicable	not applicable	not applicable	not applicable
336.043	5.954	5	19_H17_combined_small.mp4	displayCuriosity	7	339.832213576999	not applicable	not applicable	not applicable	not applicable	not applicable	not applicable	not applicable	not applicable	not applicable	not applicable	not applicable	not applicable
341.996	4	5	19_H17_combined_small.mp4	fixationPostCuriosity	not applicable	not applicable	not applicable	not applicable	not applicable	not applicable	not applicable	not applicable	not applicable	not applicable	not applicable	not applicable	not applicable	not applicable
347.988	6.026	6	06_H7_combined_small.mp4	displayMockVid	not applicable	not applicable	not applicable	not applicable	not applicable	not applicable	not applicable	not applicable	not applicable	not applicable	not applicable	not applicable	not applicable	not applicable
354.015	33.864	6	06_H7_combined_small.mp4	displayVid	not applicable	not applicable	no recall	forgotten	forgotten	The magician wraps the salt shaker in the cloth and makes it disappear.	1	forgotten	forgotten	forgotten	forgotten	forgotten	forgotten	forgotten
387.996	4	6	06_H7_combined_small.mp4	fixationPostVid	not applicable	not applicable	not applicable	not applicable	not applicable	not applicable	not applicable	not applicable	not applicable	not applicable	not applicable	not applicable	not applicable	not applicable
391.996	6	6	06_H7_combined_small.mp4	displayAnswer	11 to 20	392.544046627998	not applicable	not applicable	not applicable	not applicable	not applicable	not applicable	not applicable	not applicable	not applicable	not applicable	not applicable	not applicable
397.996	0.049	6	06_H7_combined_small.mp4	fixationPostAnswer	not applicable	not applicable	not applicable	not applicable	not applicable	not applicable	not applicable	not applicable	not applicable	not applicable	not applicable	not applicable	not applicable	not applicable
398.045	5.946	6	06_H7_combined_small.mp4	displayCuriosity	5	401.30568845899	not applicable	not applicable	not applicable	not applicable	not applicable	not applicable	not applicable	not applicable	not applicable	not applicable	not applicable	not applicable
403.992	4.004	6	06_H7_combined_small.mp4	fixationPostCuriosity	not applicable	not applicable	not applicable	not applicable	not applicable	not applicable	not applicable	not applicable	not applicable	not applicable	not applicable	not applicable	not applicable	not applicable
409.995	6.036	7	30_H15_combined_small.mp4	displayMockVid	not applicable	not applicable	not applicable	not applicable	not applicable	not applicable	not applicable	not applicable	not applicable	not applicable	not applicable	not applicable	not applicable	not applicable
416.032	31.895	7	30_H15_combined_small.mp4	displayVid	not applicable	not applicable	no recall	forgotten	forgotten	The magician balances a toothpick on a deck of cards.	6	remembered	remembered	remembered	remembered	remembered	remembered	remembered
447.99	4.003	7	30_H15_combined_small.mp4	fixationPostVid	not applicable	not applicable	not applicable	not applicable	not applicable	not applicable	not applicable	not applicable	not applicable	not applicable	not applicable	not applicable	not applicable	not applicable
451.994	6.001	7	30_H15_combined_small.mp4	displayAnswer	21 to 30	453.400877368986	not applicable	not applicable	not applicable	not applicable	not applicable	not applicable	not applicable	not applicable	not applicable	not applicable	not applicable	not applicable
457.995	0.05	7	30_H15_combined_small.mp4	fixationPostAnswer	not applicable	not applicable	not applicable	not applicable	not applicable	not applicable	not applicable	not applicable	not applicable	not applicable	not applicable	not applicable	not applicable	not applicable
458.044	5.951	7	30_H15_combined_small.mp4	displayCuriosity	4	461.794138675992	not applicable	not applicable	not applicable	not applicable	not applicable	not applicable	not applicable	not applicable	not applicable	not applicable	not applicable	not applicable
463.995	4	7	30_H15_combined_small.mp4	fixationPostCuriosity	not applicable	not applicable	not applicable	not applicable	not applicable	not applicable	not applicable	not applicable	not applicable	not applicable	not applicable	not applicable	not applicable	not applicable
469.989	6.04	8	04_S9_combined_small.mp4	displayMockVid	not applicable	not applicable	not applicable	not applicable	not applicable	not applicable	not applicable	not applicable	not applicable	not applicable	not applicable	not applicable	not applicable	not applicable
476.029	32.452	8	04_S9_combined_small.mp4	displayVid	not applicable	not applicable	finds the card with the signature on it	forgotten	forgotten	The cards magically change their appearance.	5	remembered	remembered	remembered	remembered	remembered	remembered	remembered
509.985	6.005	8	04_S9_combined_small.mp4	fixationPostVid	not applicable	not applicable	not applicable	not applicable	not applicable	not applicable	not applicable	not applicable	not applicable	not applicable	not applicable	not applicable	not applicable	not applicable
515.99	6.003	8	04_S9_combined_small.mp4	displayAnswer	21 to 30	516.821601889998	not applicable	not applicable	not applicable	not applicable	not applicable	not applicable	not applicable	not applicable	not applicable	not applicable	not applicable	not applicable
521.993	0.05	8	04_S9_combined_small.mp4	fixationPostAnswer	not applicable	not applicable	not applicable	not applicable	not applicable	not applicable	not applicable	not applicable	not applicable	not applicable	not applicable	not applicable	not applicable	not applicable
522.043	5.951	8	04_S9_combined_small.mp4	displayCuriosity	3	525.534774111991	not applicable	not applicable	not applicable	not applicable	not applicable	not applicable	not applicable	not applicable	not applicable	not applicable	not applicable	not applicable
527.994	4.001	8	04_S9_combined_small.mp4	fixationPostCuriosity	not applicable	not applicable	not applicable	not applicable	not applicable	not applicable	not applicable	not applicable	not applicable	not applicable	not applicable	not applicable	not applicable	not applicable
533.985	6.041	9	31_K3_combined_small.mp4	displayMockVid	not applicable	not applicable	not applicable	not applicable	not applicable	not applicable	not applicable	not applicable	not applicable	not applicable	not applicable	not applicable	not applicable	not applicable
540.026	25.886	9	31_K3_combined_small.mp4	displayVid	not applicable	not applicable	no recall	forgotten	forgotten	The magician changes the colour of the leaf several times.	1	forgotten	forgotten	forgotten	forgotten	forgotten	forgotten	forgotten
565.993	4	9	31_K3_combined_small.mp4	fixationPostVid	not applicable	not applicable	not applicable	not applicable	not applicable	not applicable	not applicable	not applicable	not applicable	not applicable	not applicable	not applicable	not applicable	not applicable
569.993	6	9	31_K3_combined_small.mp4	displayAnswer	11 to 20	570.433244979999	not applicable	not applicable	not applicable	not applicable	not applicable	not applicable	not applicable	not applicable	not applicable	not applicable	not applicable	not applicable
575.994	0.05	9	31_K3_combined_small.mp4	fixationPostAnswer	not applicable	not applicable	not applicable	not applicable	not applicable	not applicable	not applicable	not applicable	not applicable	not applicable	not applicable	not applicable	not applicable	not applicable
576.044	5.949	9	31_K3_combined_small.mp4	displayCuriosity	3	577.155938070995	not applicable	not applicable	not applicable	not applicable	not applicable	not applicable	not applicable	not applicable	not applicable	not applicable	not applicable	not applicable
581.993	3.997	9	31_K3_combined_small.mp4	fixationPostCuriosity	not applicable	not applicable	not applicable	not applicable	not applicable	not applicable	not applicable	not applicable	not applicable	not applicable	not applicable	not applicable	not applicable	not applicable
587.991	6.038	10	20_Trick20_short_combined_small.mp4	displayMockVid	not applicable	not applicable	not applicable	not applicable	not applicable	not applicable	not applicable	not applicable	not applicable	not applicable	not applicable	not applicable	not applicable	not applicable
594.029	26.131	10	20_Trick20_short_combined_small.mp4	displayVid	not applicable	not applicable	no recall	forgotten	forgotten	The volunteer holds the nut in her hands which are then tied with the rope. When the magician removes the rope, the nut is no longer in the volunteer's hand but appears in the magician's pocket.	1	forgotten	forgotten	forgotten	forgotten	forgotten	forgotten	forgotten
621.982	6.004	10	20_Trick20_short_combined_small.mp4	fixationPostVid	not applicable	not applicable	not applicable	not applicable	not applicable	not applicable	not applicable	not applicable	not applicable	not applicable	not applicable	not applicable	not applicable	not applicable
627.986	6.005	10	20_Trick20_short_combined_small.mp4	displayAnswer	11 to 20	628.636058159987	not applicable	not applicable	not applicable	not applicable	not applicable	not applicable	not applicable	not applicable	not applicable	not applicable	not applicable	not applicable
633.992	0.049	10	20_Trick20_short_combined_small.mp4	fixationPostAnswer	not applicable	not applicable	not applicable	not applicable	not applicable	not applicable	not applicable	not applicable	not applicable	not applicable	not applicable	not applicable	not applicable	not applicable
634.04	5.952	10	20_Trick20_short_combined_small.mp4	displayCuriosity	4	637.507058519986	not applicable	not applicable	not applicable	not applicable	not applicable	not applicable	not applicable	not applicable	not applicable	not applicable	not applicable	not applicable
639.993	6	10	20_Trick20_short_combined_small.mp4	fixationPostCuriosity	not applicable	not applicable	not applicable	not applicable	not applicable	not applicable	not applicable	not applicable	not applicable	not applicable	not applicable	not applicable	not applicable	not applicable
647.984	6.04	11	02_H10_combined_small.mp4	displayMockVid	not applicable	not applicable	not applicable	not applicable	not applicable	not applicable	not applicable	not applicable	not applicable	not applicable	not applicable	not applicable	not applicable	not applicable
654.024	30.855	11	02_H10_combined_small.mp4	displayVid	not applicable	not applicable	had a whole card then pulled the quarters off	forgotten	forgotten	The magician is able to split and put back together a card.	2	forgotten	forgotten	forgotten	forgotten	forgotten	forgotten	forgotten
685.992	3.999	11	02_H10_combined_small.mp4	fixationPostVid	not applicable	not applicable	not applicable	not applicable	not applicable	not applicable	not applicable	not applicable	not applicable	not applicable	not applicable	not applicable	not applicable	not applicable
689.992	5.994	11	02_H10_combined_small.mp4	displayAnswer	11 to 20	690.488972038991	not applicable	not applicable	not applicable	not applicable	not applicable	not applicable	not applicable	not applicable	not applicable	not applicable	not applicable	not applicable
695.986	0.05	11	02_H10_combined_small.mp4	fixationPostAnswer	not applicable	not applicable	not applicable	not applicable	not applicable	not applicable	not applicable	not applicable	not applicable	not applicable	not applicable	not applicable	not applicable	not applicable
696.035	5.954	11	02_H10_combined_small.mp4	displayCuriosity	4	700.057266342978	not applicable	not applicable	not applicable	not applicable	not applicable	not applicable	not applicable	not applicable	not applicable	not applicable	not applicable	not applicable
701.99	10.001	11	02_H10_combined_small.mp4	fixationPostCuriosity	not applicable	not applicable	not applicable	not applicable	not applicable	not applicable	not applicable	not applicable	not applicable	not applicable	not applicable	not applicable	not applicable	not applicable
713.982	6.028	12	11_K21_long_combined_small.mp4	displayMockVid	not applicable	not applicable	not applicable	not applicable	not applicable	not applicable	not applicable	not applicable	not applicable	not applicable	not applicable	not applicable	not applicable	not applicable
720.01	43.777	12	11_K21_long_combined_small.mp4	displayVid	not applicable	not applicable	the pattern on the back of the cards changes colour 	remembered	remembered	The magician flips the middle card over with a slight gesture and then changes the colour of the back of the card from blue to red.	6	remembered	remembered	remembered	remembered	remembered	remembered	remembered
763.984	4.004	12	11_K21_long_combined_small.mp4	fixationPostVid	not applicable	not applicable	not applicable	not applicable	not applicable	not applicable	not applicable	not applicable	not applicable	not applicable	not applicable	not applicable	not applicable	not applicable
767.989	6.003	12	11_K21_long_combined_small.mp4	displayAnswer	11 to 20	770.399991871003	not applicable	not applicable	not applicable	not applicable	not applicable	not applicable	not applicable	not applicable	not applicable	not applicable	not applicable	not applicable
773.991	0.048	12	11_K21_long_combined_small.mp4	fixationPostAnswer	not applicable	not applicable	not applicable	not applicable	not applicable	not applicable	not applicable	not applicable	not applicable	not applicable	not applicable	not applicable	not applicable	not applicable
774.04	5.951	12	11_K21_long_combined_small.mp4	displayCuriosity	6	777.102152712992	not applicable	not applicable	not applicable	not applicable	not applicable	not applicable	not applicable	not applicable	not applicable	not applicable	not applicable	not applicable
779.991	3.999	12	11_K21_long_combined_small.mp4	fixationPostCuriosity	not applicable	not applicable	not applicable	not applicable	not applicable	not applicable	not applicable	not applicable	not applicable	not applicable	not applicable	not applicable	not applicable	not applicable
