onset	duration	trial	stim_file	event	response	response_timestamp	response_recall	trial_type_cuedRecallStrict	trial_type_cuedRecallLenient	response_recognition	response_confidence	trial_type_allConf	trial_type_highConf	trial_type_aboveAvgConf	trial_type_rememberedStrictAboveAvg	trial_type_rememberedLenientAboveAvg	trial_type_rememberedStrictHigh	trial_type_rememberedLenientHigh
2	6.026	1	15_S18_combined_small.mp4	displayMockVid	not applicable	not applicable	not applicable	not applicable	not applicable	not applicable	not applicable	not applicable	not applicable	not applicable	not applicable	not applicable	not applicable	not applicable
8.027	32.507	1	15_S18_combined_small.mp4	displayVid	not applicable	not applicable	an object was placed into the bag and crumpled up as if it was empty	forgotten	forgotten	The magician is able to hide his whole arm inside the blue paper bag.	1	forgotten	forgotten	forgotten	forgotten	forgotten	forgotten	forgotten
41.999	4.001	1	15_S18_combined_small.mp4	fixationPostVid	not applicable	not applicable	not applicable	not applicable	not applicable	not applicable	not applicable	not applicable	not applicable	not applicable	not applicable	not applicable	not applicable	not applicable
45.999	6	1	15_S18_combined_small.mp4	displayAnswer	21 to 30	47.4911467839993	not applicable	not applicable	not applicable	not applicable	not applicable	not applicable	not applicable	not applicable	not applicable	not applicable	not applicable	not applicable
52	0.072	1	15_S18_combined_small.mp4	fixationPostAnswer	not applicable	not applicable	not applicable	not applicable	not applicable	not applicable	not applicable	not applicable	not applicable	not applicable	not applicable	not applicable	not applicable	not applicable
52.072	5.955	1	15_S18_combined_small.mp4	displayCuriosity	3	56.5829125800083	not applicable	not applicable	not applicable	not applicable	not applicable	not applicable	not applicable	not applicable	not applicable	not applicable	not applicable	not applicable
58.028	4.003	1	15_S18_combined_small.mp4	fixationPostCuriosity	not applicable	not applicable	not applicable	not applicable	not applicable	not applicable	not applicable	not applicable	not applicable	not applicable	not applicable	not applicable	not applicable	not applicable
63.998	6.006	2	35_Trick32_long_combined_small.mp4	displayMockVid	not applicable	not applicable	not applicable	not applicable	not applicable	not applicable	not applicable	not applicable	not applicable	not applicable	not applicable	not applicable	not applicable	not applicable
70.004	46.962	2	35_Trick32_long_combined_small.mp4	displayVid	not applicable	not applicable	a coin was placed under one hand where it apeard to move from under on hand to another. the coins were revealed to also increase in number 	remembered	remembered	The magician has a coin in each of his hands. They both end up in one hand.	4	forgotten	forgotten	forgotten	remembered	remembered	remembered	remembered
118.001	3.998	2	35_Trick32_long_combined_small.mp4	fixationPostVid	not applicable	not applicable	not applicable	not applicable	not applicable	not applicable	not applicable	not applicable	not applicable	not applicable	not applicable	not applicable	not applicable	not applicable
121.999	5.996	2	35_Trick32_long_combined_small.mp4	displayAnswer	11 to 20	124.297379215001	not applicable	not applicable	not applicable	not applicable	not applicable	not applicable	not applicable	not applicable	not applicable	not applicable	not applicable	not applicable
127.994	0.05	2	35_Trick32_long_combined_small.mp4	fixationPostAnswer	not applicable	not applicable	not applicable	not applicable	not applicable	not applicable	not applicable	not applicable	not applicable	not applicable	not applicable	not applicable	not applicable	not applicable
128.044	5.955	2	35_Trick32_long_combined_small.mp4	displayCuriosity	4	132.159700656004	not applicable	not applicable	not applicable	not applicable	not applicable	not applicable	not applicable	not applicable	not applicable	not applicable	not applicable	not applicable
133.999	7.999	2	35_Trick32_long_combined_small.mp4	fixationPostCuriosity	not applicable	not applicable	not applicable	not applicable	not applicable	not applicable	not applicable	not applicable	not applicable	not applicable	not applicable	not applicable	not applicable	not applicable
143.999	6.03	3	12_H37_combined_small.mp4	displayMockVid	not applicable	not applicable	not applicable	not applicable	not applicable	not applicable	not applicable	not applicable	not applicable	not applicable	not applicable	not applicable	not applicable	not applicable
150.029	28.769	3	12_H37_combined_small.mp4	displayVid	not applicable	not applicable	no recall	forgotten	forgotten	The magician detaches his thumb, but when he turns his hands, the thumb is reattached.	5	forgotten	forgotten	forgotten	forgotten	forgotten	forgotten	forgotten
179.999	3.999	3	12_H37_combined_small.mp4	fixationPostVid	not applicable	not applicable	not applicable	not applicable	not applicable	not applicable	not applicable	not applicable	not applicable	not applicable	not applicable	not applicable	not applicable	not applicable
183.998	6	3	12_H37_combined_small.mp4	displayAnswer	31 or more	185.233234429004	not applicable	not applicable	not applicable	not applicable	not applicable	not applicable	not applicable	not applicable	not applicable	not applicable	not applicable	not applicable
189.998	0.05	3	12_H37_combined_small.mp4	fixationPostAnswer	not applicable	not applicable	not applicable	not applicable	not applicable	not applicable	not applicable	not applicable	not applicable	not applicable	not applicable	not applicable	not applicable	not applicable
190.048	5.979	3	12_H37_combined_small.mp4	displayCuriosity	4	195.973271973999	not applicable	not applicable	not applicable	not applicable	not applicable	not applicable	not applicable	not applicable	not applicable	not applicable	not applicable	not applicable
196.027	10.004	3	12_H37_combined_small.mp4	fixationPostCuriosity	not applicable	not applicable	not applicable	not applicable	not applicable	not applicable	not applicable	not applicable	not applicable	not applicable	not applicable	not applicable	not applicable	not applicable
207.997	6.028	4	33_S21_combined_small.mp4	displayMockVid	not applicable	not applicable	not applicable	not applicable	not applicable	not applicable	not applicable	not applicable	not applicable	not applicable	not applicable	not applicable	not applicable	not applicable
214.025	21.824	4	33_S21_combined_small.mp4	displayVid	not applicable	not applicable	the spoon looked like it was bending in half by itself	remembered	remembered	The magician bents the spoon only sing his pinkie as a force.	4	forgotten	forgotten	forgotten	remembered	remembered	remembered	remembered
235.997	4	4	33_S21_combined_small.mp4	fixationPostVid	not applicable	not applicable	not applicable	not applicable	not applicable	not applicable	not applicable	not applicable	not applicable	not applicable	not applicable	not applicable	not applicable	not applicable
239.997	6	4	33_S21_combined_small.mp4	displayAnswer	31 or more	242.345834823005	not applicable	not applicable	not applicable	not applicable	not applicable	not applicable	not applicable	not applicable	not applicable	not applicable	not applicable	not applicable
245.997	0.049	4	33_S21_combined_small.mp4	fixationPostAnswer	not applicable	not applicable	not applicable	not applicable	not applicable	not applicable	not applicable	not applicable	not applicable	not applicable	not applicable	not applicable	not applicable	not applicable
246.046	5.951	4	33_S21_combined_small.mp4	displayCuriosity	5	249.980677038009	not applicable	not applicable	not applicable	not applicable	not applicable	not applicable	not applicable	not applicable	not applicable	not applicable	not applicable	not applicable
251.997	4	4	33_S21_combined_small.mp4	fixationPostCuriosity	not applicable	not applicable	not applicable	not applicable	not applicable	not applicable	not applicable	not applicable	not applicable	not applicable	not applicable	not applicable	not applicable	not applicable
257.997	6.036	5	14_K19_long_combined_small.mp4	displayMockVid	not applicable	not applicable	not applicable	not applicable	not applicable	not applicable	not applicable	not applicable	not applicable	not applicable	not applicable	not applicable	not applicable	not applicable
264.032	31.815	5	14_K19_long_combined_small.mp4	displayVid	not applicable	not applicable	no recall	forgotten	forgotten	The red balls are placed under the mug and merge to become a form a larger ball.	3	forgotten	forgotten	forgotten	forgotten	forgotten	forgotten	forgotten
295.997	4	5	14_K19_long_combined_small.mp4	fixationPostVid	not applicable	not applicable	not applicable	not applicable	not applicable	not applicable	not applicable	not applicable	not applicable	not applicable	not applicable	not applicable	not applicable	not applicable
299.996	6	5	14_K19_long_combined_small.mp4	displayAnswer	0 to 10	301.913488202001	not applicable	not applicable	not applicable	not applicable	not applicable	not applicable	not applicable	not applicable	not applicable	not applicable	not applicable	not applicable
305.996	0.05	5	14_K19_long_combined_small.mp4	fixationPostAnswer	not applicable	not applicable	not applicable	not applicable	not applicable	not applicable	not applicable	not applicable	not applicable	not applicable	not applicable	not applicable	not applicable	not applicable
306.046	5.947	5	14_K19_long_combined_small.mp4	displayCuriosity	6	309.818406708	not applicable	not applicable	not applicable	not applicable	not applicable	not applicable	not applicable	not applicable	not applicable	not applicable	not applicable	not applicable
311.993	4.003	5	14_K19_long_combined_small.mp4	fixationPostCuriosity	not applicable	not applicable	not applicable	not applicable	not applicable	not applicable	not applicable	not applicable	not applicable	not applicable	not applicable	not applicable	not applicable	not applicable
317.995	6.025	6	03_H16_combined_small.mp4	displayMockVid	not applicable	not applicable	not applicable	not applicable	not applicable	not applicable	not applicable	not applicable	not applicable	not applicable	not applicable	not applicable	not applicable	not applicable
324.02	33.623	6	03_H16_combined_small.mp4	displayVid	not applicable	not applicable	the can was crushed and appeared to become uncrushed without being touched. the can was then picked up and used to pour out coca cola into the glass	remembered	remembered	The magician pours coke into a glass from an empty can.	5	remembered	remembered	remembered	remembered	remembered	remembered	remembered
357.995	4.002	6	03_H16_combined_small.mp4	fixationPostVid	not applicable	not applicable	not applicable	not applicable	not applicable	not applicable	not applicable	not applicable	not applicable	not applicable	not applicable	not applicable	not applicable	not applicable
361.997	6	6	03_H16_combined_small.mp4	displayAnswer	11 to 20	362.834263933008	not applicable	not applicable	not applicable	not applicable	not applicable	not applicable	not applicable	not applicable	not applicable	not applicable	not applicable	not applicable
367.997	0.048	6	03_H16_combined_small.mp4	fixationPostAnswer	not applicable	not applicable	not applicable	not applicable	not applicable	not applicable	not applicable	not applicable	not applicable	not applicable	not applicable	not applicable	not applicable	not applicable
368.045	5.952	6	03_H16_combined_small.mp4	displayCuriosity	5	372.076537765999	not applicable	not applicable	not applicable	not applicable	not applicable	not applicable	not applicable	not applicable	not applicable	not applicable	not applicable	not applicable
373.996	3.999	6	03_H16_combined_small.mp4	fixationPostCuriosity	not applicable	not applicable	not applicable	not applicable	not applicable	not applicable	not applicable	not applicable	not applicable	not applicable	not applicable	not applicable	not applicable	not applicable
379.993	6.038	7	22_K18_combined_small.mp4	displayMockVid	not applicable	not applicable	not applicable	not applicable	not applicable	not applicable	not applicable	not applicable	not applicable	not applicable	not applicable	not applicable	not applicable	not applicable
386.031	22.215	7	22_K18_combined_small.mp4	displayVid	not applicable	not applicable	there was one piece of paper with a card on it which seemed to unfold depite having no apparent extra pieces of paper	forgotten	forgotten	A pack of cards appears from a single piece of paper.	3	remembered	forgotten	forgotten	forgotten	forgotten	forgotten	forgotten
409.995	4	7	22_K18_combined_small.mp4	fixationPostVid	not applicable	not applicable	not applicable	not applicable	not applicable	not applicable	not applicable	not applicable	not applicable	not applicable	not applicable	not applicable	not applicable	not applicable
413.995	6	7	22_K18_combined_small.mp4	displayAnswer	21 to 30	414.911602709006	not applicable	not applicable	not applicable	not applicable	not applicable	not applicable	not applicable	not applicable	not applicable	not applicable	not applicable	not applicable
419.995	0.049	7	22_K18_combined_small.mp4	fixationPostAnswer	not applicable	not applicable	not applicable	not applicable	not applicable	not applicable	not applicable	not applicable	not applicable	not applicable	not applicable	not applicable	not applicable	not applicable
420.044	5.949	7	22_K18_combined_small.mp4	displayCuriosity	2	421.814158066001	not applicable	not applicable	not applicable	not applicable	not applicable	not applicable	not applicable	not applicable	not applicable	not applicable	not applicable	not applicable
425.993	4.002	7	22_K18_combined_small.mp4	fixationPostCuriosity	not applicable	not applicable	not applicable	not applicable	not applicable	not applicable	not applicable	not applicable	not applicable	not applicable	not applicable	not applicable	not applicable	not applicable
431.995	6.025	8	02_H10_combined_small.mp4	displayMockVid	not applicable	not applicable	not applicable	not applicable	not applicable	not applicable	not applicable	not applicable	not applicable	not applicable	not applicable	not applicable	not applicable	not applicable
438.02	30.87	8	02_H10_combined_small.mp4	displayVid	not applicable	not applicable	the magicians hands covered the cut pieces of the card and when the hand was moved the pieces appeared as if they were never cut	remembered	remembered	The magician magically repairs split card.	6	remembered	remembered	remembered	remembered	remembered	remembered	remembered
469.992	6.002	8	02_H10_combined_small.mp4	fixationPostVid	not applicable	not applicable	not applicable	not applicable	not applicable	not applicable	not applicable	not applicable	not applicable	not applicable	not applicable	not applicable	not applicable	not applicable
475.994	6.001	8	02_H10_combined_small.mp4	displayAnswer	11 to 20	478.119675998008	not applicable	not applicable	not applicable	not applicable	not applicable	not applicable	not applicable	not applicable	not applicable	not applicable	not applicable	not applicable
481.995	0.049	8	02_H10_combined_small.mp4	fixationPostAnswer	not applicable	not applicable	not applicable	not applicable	not applicable	not applicable	not applicable	not applicable	not applicable	not applicable	not applicable	not applicable	not applicable	not applicable
482.044	5.95	8	02_H10_combined_small.mp4	displayCuriosity	6	485.636744257004	not applicable	not applicable	not applicable	not applicable	not applicable	not applicable	not applicable	not applicable	not applicable	not applicable	not applicable	not applicable
487.994	4	8	02_H10_combined_small.mp4	fixationPostCuriosity	not applicable	not applicable	not applicable	not applicable	not applicable	not applicable	not applicable	not applicable	not applicable	not applicable	not applicable	not applicable	not applicable	not applicable
493.992	6.038	9	29_H36_combined_small.mp4	displayMockVid	not applicable	not applicable	not applicable	not applicable	not applicable	not applicable	not applicable	not applicable	not applicable	not applicable	not applicable	not applicable	not applicable	not applicable
500.03	36.411	9	29_H36_combined_small.mp4	displayVid	not applicable	not applicable	the nut was screwed onto the screw and was shown to unscrew itself until it fell off the screw	remembered	remembered	The nut is placed on the middle of the bold by the volunteer and magically unscrews itself.	6	remembered	remembered	remembered	remembered	remembered	remembered	remembered
537.993	4	9	29_H36_combined_small.mp4	fixationPostVid	not applicable	not applicable	not applicable	not applicable	not applicable	not applicable	not applicable	not applicable	not applicable	not applicable	not applicable	not applicable	not applicable	not applicable
541.993	6	9	29_H36_combined_small.mp4	displayAnswer	0 to 10	542.651939574003	not applicable	not applicable	not applicable	not applicable	not applicable	not applicable	not applicable	not applicable	not applicable	not applicable	not applicable	not applicable
547.993	0.051	9	29_H36_combined_small.mp4	fixationPostAnswer	not applicable	not applicable	not applicable	not applicable	not applicable	not applicable	not applicable	not applicable	not applicable	not applicable	not applicable	not applicable	not applicable	not applicable
548.043	5.951	9	29_H36_combined_small.mp4	displayCuriosity	6	550.745320991002	not applicable	not applicable	not applicable	not applicable	not applicable	not applicable	not applicable	not applicable	not applicable	not applicable	not applicable	not applicable
553.994	3.998	9	29_H36_combined_small.mp4	fixationPostCuriosity	not applicable	not applicable	not applicable	not applicable	not applicable	not applicable	not applicable	not applicable	not applicable	not applicable	not applicable	not applicable	not applicable	not applicable
559.993	6.002	10	30_H15_combined_small.mp4	displayMockVid	not applicable	not applicable	not applicable	not applicable	not applicable	not applicable	not applicable	not applicable	not applicable	not applicable	not applicable	not applicable	not applicable	not applicable
565.995	31.933	10	30_H15_combined_small.mp4	displayVid	not applicable	not applicable	no recall	forgotten	forgotten	The magician balances a toothpick on a deck of cards.	6	remembered	remembered	remembered	remembered	remembered	remembered	remembered
597.993	6	10	30_H15_combined_small.mp4	fixationPostVid	not applicable	not applicable	not applicable	not applicable	not applicable	not applicable	not applicable	not applicable	not applicable	not applicable	not applicable	not applicable	not applicable	not applicable
603.993	5.999	10	30_H15_combined_small.mp4	displayAnswer	21 to 30	605.069927463002	not applicable	not applicable	not applicable	not applicable	not applicable	not applicable	not applicable	not applicable	not applicable	not applicable	not applicable	not applicable
609.992	0.05	10	30_H15_combined_small.mp4	fixationPostAnswer	not applicable	not applicable	not applicable	not applicable	not applicable	not applicable	not applicable	not applicable	not applicable	not applicable	not applicable	not applicable	not applicable	not applicable
610.042	5.95	10	30_H15_combined_small.mp4	displayCuriosity	5	612.544129266011	not applicable	not applicable	not applicable	not applicable	not applicable	not applicable	not applicable	not applicable	not applicable	not applicable	not applicable	not applicable
615.992	6	10	30_H15_combined_small.mp4	fixationPostCuriosity	not applicable	not applicable	not applicable	not applicable	not applicable	not applicable	not applicable	not applicable	not applicable	not applicable	not applicable	not applicable	not applicable	not applicable
623.992	6.034	11	31_K3_combined_small.mp4	displayMockVid	not applicable	not applicable	not applicable	not applicable	not applicable	not applicable	not applicable	not applicable	not applicable	not applicable	not applicable	not applicable	not applicable	not applicable
630.026	25.901	11	31_K3_combined_small.mp4	displayVid	not applicable	not applicable	the leaf was turned over to sho a ladybug it was then turned over to show another bug. the leaf was then turned over again to show more bugs	forgotten	remembered	The magician makes ladybirds appear and then disappear again.	6	remembered	remembered	remembered	remembered	remembered	remembered	remembered
655.992	4.002	11	31_K3_combined_small.mp4	fixationPostVid	not applicable	not applicable	not applicable	not applicable	not applicable	not applicable	not applicable	not applicable	not applicable	not applicable	not applicable	not applicable	not applicable	not applicable
659.993	5.998	11	31_K3_combined_small.mp4	displayAnswer	0 to 10	661.750765035002	not applicable	not applicable	not applicable	not applicable	not applicable	not applicable	not applicable	not applicable	not applicable	not applicable	not applicable	not applicable
665.992	0.05	11	31_K3_combined_small.mp4	fixationPostAnswer	not applicable	not applicable	not applicable	not applicable	not applicable	not applicable	not applicable	not applicable	not applicable	not applicable	not applicable	not applicable	not applicable	not applicable
666.042	5.95	11	31_K3_combined_small.mp4	displayCuriosity	7	667.261083719	not applicable	not applicable	not applicable	not applicable	not applicable	not applicable	not applicable	not applicable	not applicable	not applicable	not applicable	not applicable
671.991	10	11	31_K3_combined_small.mp4	fixationPostCuriosity	not applicable	not applicable	not applicable	not applicable	not applicable	not applicable	not applicable	not applicable	not applicable	not applicable	not applicable	not applicable	not applicable	not applicable
683.991	6.036	12	13_Trick6_short_combined_small.mp4	displayMockVid	not applicable	not applicable	not applicable	not applicable	not applicable	not applicable	not applicable	not applicable	not applicable	not applicable	not applicable	not applicable	not applicable	not applicable
690.026	37.646	12	13_Trick6_short_combined_small.mp4	displayVid	not applicable	not applicable	the ball was dropped into the cup and when the cup was turned back over nothing came out	forgotten	forgotten	The magician puts a ball under the cup, which then turns into a larger ball and then becomes an egg.	3	remembered	forgotten	forgotten	forgotten	forgotten	forgotten	forgotten
727.991	4	12	13_Trick6_short_combined_small.mp4	fixationPostVid	not applicable	not applicable	not applicable	not applicable	not applicable	not applicable	not applicable	not applicable	not applicable	not applicable	not applicable	not applicable	not applicable	not applicable
731.991	6	12	13_Trick6_short_combined_small.mp4	displayAnswer	0 to 10	733.314787433002	not applicable	not applicable	not applicable	not applicable	not applicable	not applicable	not applicable	not applicable	not applicable	not applicable	not applicable	not applicable
737.991	0.049	12	13_Trick6_short_combined_small.mp4	fixationPostAnswer	not applicable	not applicable	not applicable	not applicable	not applicable	not applicable	not applicable	not applicable	not applicable	not applicable	not applicable	not applicable	not applicable	not applicable
738.04	5.948	12	13_Trick6_short_combined_small.mp4	displayCuriosity	2	742.500772428	not applicable	not applicable	not applicable	not applicable	not applicable	not applicable	not applicable	not applicable	not applicable	not applicable	not applicable	not applicable
743.988	4.003	12	13_Trick6_short_combined_small.mp4	fixationPostCuriosity	not applicable	not applicable	not applicable	not applicable	not applicable	not applicable	not applicable	not applicable	not applicable	not applicable	not applicable	not applicable	not applicable	not applicable
