onset	duration	trial	stim_file	event	response	response_timestamp	response_recall	trial_type_cuedRecallStrict	trial_type_cuedRecallLenient	response_recognition	response_confidence	trial_type_allConf	trial_type_highConf	trial_type_aboveAvgConf	trial_type_rememberedStrictAboveAvg	trial_type_rememberedLenientAboveAvg	trial_type_rememberedStrictHigh	trial_type_rememberedLenientHigh
1.999	6.024	1	02_H10_combined_small.mp4	displayMockVid	not applicable	not applicable	not applicable	not applicable	not applicable	not applicable	not applicable	not applicable	not applicable	not applicable	not applicable	not applicable	not applicable	not applicable
8.024	31.37	1	02_H10_combined_small.mp4	displayVid	not applicable	not applicable	attaches the broken pieces of card together to form an uncut card	remembered	remembered	The magician magically repairs split card.	3	remembered	forgotten	forgotten	remembered	remembered	remembered	remembered
39.996	4.003	1	02_H10_combined_small.mp4	fixationPostVid	not applicable	not applicable	not applicable	not applicable	not applicable	not applicable	not applicable	not applicable	not applicable	not applicable	not applicable	not applicable	not applicable	not applicable
43.999	6	1	02_H10_combined_small.mp4	displayAnswer	11 to 20	46.7722858300003	not applicable	not applicable	not applicable	not applicable	not applicable	not applicable	not applicable	not applicable	not applicable	not applicable	not applicable	not applicable
49.999	0.083	1	02_H10_combined_small.mp4	fixationPostAnswer	not applicable	not applicable	not applicable	not applicable	not applicable	not applicable	not applicable	not applicable	not applicable	not applicable	not applicable	not applicable	not applicable	not applicable
50.082	5.95	1	02_H10_combined_small.mp4	displayCuriosity	3	53.5667618850021	not applicable	not applicable	not applicable	not applicable	not applicable	not applicable	not applicable	not applicable	not applicable	not applicable	not applicable	not applicable
56.032	4	1	02_H10_combined_small.mp4	fixationPostCuriosity	not applicable	not applicable	not applicable	not applicable	not applicable	not applicable	not applicable	not applicable	not applicable	not applicable	not applicable	not applicable	not applicable	not applicable
61.998	6.004	2	29_H36_combined_small.mp4	displayMockVid	not applicable	not applicable	not applicable	not applicable	not applicable	not applicable	not applicable	not applicable	not applicable	not applicable	not applicable	not applicable	not applicable	not applicable
68.002	36.438	2	29_H36_combined_small.mp4	displayVid	not applicable	not applicable	puts nut on the bolt and makes it spin to remove itself from the bolt	remembered	remembered	The nut is placed on the middle of the bold by the volunteer and magically unscrews itself.	5	remembered	remembered	remembered	remembered	remembered	remembered	remembered
105.998	3.998	2	29_H36_combined_small.mp4	fixationPostVid	not applicable	not applicable	not applicable	not applicable	not applicable	not applicable	not applicable	not applicable	not applicable	not applicable	not applicable	not applicable	not applicable	not applicable
109.996	6.002	2	29_H36_combined_small.mp4	displayAnswer	11 to 20	112.574593820002	not applicable	not applicable	not applicable	not applicable	not applicable	not applicable	not applicable	not applicable	not applicable	not applicable	not applicable	not applicable
115.998	0.05	2	29_H36_combined_small.mp4	fixationPostAnswer	not applicable	not applicable	not applicable	not applicable	not applicable	not applicable	not applicable	not applicable	not applicable	not applicable	not applicable	not applicable	not applicable	not applicable
116.048	5.95	2	29_H36_combined_small.mp4	displayCuriosity	4	120.38068654	not applicable	not applicable	not applicable	not applicable	not applicable	not applicable	not applicable	not applicable	not applicable	not applicable	not applicable	not applicable
121.998	8	2	29_H36_combined_small.mp4	fixationPostCuriosity	not applicable	not applicable	not applicable	not applicable	not applicable	not applicable	not applicable	not applicable	not applicable	not applicable	not applicable	not applicable	not applicable	not applicable
131.994	6.039	3	03_H16_combined_small.mp4	displayMockVid	not applicable	not applicable	not applicable	not applicable	not applicable	not applicable	not applicable	not applicable	not applicable	not applicable	not applicable	not applicable	not applicable	not applicable
138.033	33.605	3	03_H16_combined_small.mp4	displayVid	not applicable	not applicable	makes the can uncrush itself then pours a glass of coke	remembered	remembered	The magician pours coke into a glass from an empty can.	3	remembered	forgotten	forgotten	remembered	remembered	remembered	remembered
171.998	3.999	3	03_H16_combined_small.mp4	fixationPostVid	not applicable	not applicable	not applicable	not applicable	not applicable	not applicable	not applicable	not applicable	not applicable	not applicable	not applicable	not applicable	not applicable	not applicable
175.997	6.001	3	03_H16_combined_small.mp4	displayAnswer	0 to 10	178.859607972001	not applicable	not applicable	not applicable	not applicable	not applicable	not applicable	not applicable	not applicable	not applicable	not applicable	not applicable	not applicable
181.998	0.05	3	03_H16_combined_small.mp4	fixationPostAnswer	not applicable	not applicable	not applicable	not applicable	not applicable	not applicable	not applicable	not applicable	not applicable	not applicable	not applicable	not applicable	not applicable	not applicable
182.048	5.95	3	03_H16_combined_small.mp4	displayCuriosity	4	186.213440967	not applicable	not applicable	not applicable	not applicable	not applicable	not applicable	not applicable	not applicable	not applicable	not applicable	not applicable	not applicable
187.998	10	3	03_H16_combined_small.mp4	fixationPostCuriosity	not applicable	not applicable	not applicable	not applicable	not applicable	not applicable	not applicable	not applicable	not applicable	not applicable	not applicable	not applicable	not applicable	not applicable
199.994	6.005	4	01_H35_combined_small.mp4	displayMockVid	not applicable	not applicable	not applicable	not applicable	not applicable	not applicable	not applicable	not applicable	not applicable	not applicable	not applicable	not applicable	not applicable	not applicable
205.999	37.694	4	01_H35_combined_small.mp4	displayVid	not applicable	not applicable	no recall	forgotten	forgotten	The volunteer signs a card that is placed into the Ziploc bag, but then appears in the card box.	4	forgotten	forgotten	forgotten	forgotten	forgotten	forgotten	forgotten
243.998	3.998	4	01_H35_combined_small.mp4	fixationPostVid	not applicable	not applicable	not applicable	not applicable	not applicable	not applicable	not applicable	not applicable	not applicable	not applicable	not applicable	not applicable	not applicable	not applicable
247.995	6.001	4	01_H35_combined_small.mp4	displayAnswer	11 to 20	250.250794431002	not applicable	not applicable	not applicable	not applicable	not applicable	not applicable	not applicable	not applicable	not applicable	not applicable	not applicable	not applicable
253.997	0.049	4	01_H35_combined_small.mp4	fixationPostAnswer	not applicable	not applicable	not applicable	not applicable	not applicable	not applicable	not applicable	not applicable	not applicable	not applicable	not applicable	not applicable	not applicable	not applicable
254.046	5.951	4	01_H35_combined_small.mp4	displayCuriosity	4	257.320406147999	not applicable	not applicable	not applicable	not applicable	not applicable	not applicable	not applicable	not applicable	not applicable	not applicable	not applicable	not applicable
259.997	3.999	4	01_H35_combined_small.mp4	fixationPostCuriosity	not applicable	not applicable	not applicable	not applicable	not applicable	not applicable	not applicable	not applicable	not applicable	not applicable	not applicable	not applicable	not applicable	not applicable
265.996	6.001	5	17_Trick37_combined_small.mp4	displayMockVid	not applicable	not applicable	not applicable	not applicable	not applicable	not applicable	not applicable	not applicable	not applicable	not applicable	not applicable	not applicable	not applicable	not applicable
271.997	46.331	5	17_Trick37_combined_small.mp4	displayVid	not applicable	not applicable	puts elastic bands around first and middle finger and by opening his hand makes them jump to the first and middle finger	remembered	remembered	An elastic band visually travels from finger to finger.	6	remembered	remembered	remembered	remembered	remembered	remembered	remembered
319.996	3.999	5	17_Trick37_combined_small.mp4	fixationPostVid	not applicable	not applicable	not applicable	not applicable	not applicable	not applicable	not applicable	not applicable	not applicable	not applicable	not applicable	not applicable	not applicable	not applicable
323.996	5.999	5	17_Trick37_combined_small.mp4	displayAnswer	31 or more	325.708405722002	not applicable	not applicable	not applicable	not applicable	not applicable	not applicable	not applicable	not applicable	not applicable	not applicable	not applicable	not applicable
329.995	0.049	5	17_Trick37_combined_small.mp4	fixationPostAnswer	not applicable	not applicable	not applicable	not applicable	not applicable	not applicable	not applicable	not applicable	not applicable	not applicable	not applicable	not applicable	not applicable	not applicable
330.045	5.946	5	17_Trick37_combined_small.mp4	displayCuriosity	2	331.633324579001	not applicable	not applicable	not applicable	not applicable	not applicable	not applicable	not applicable	not applicable	not applicable	not applicable	not applicable	not applicable
335.991	4.004	5	17_Trick37_combined_small.mp4	fixationPostCuriosity	not applicable	not applicable	not applicable	not applicable	not applicable	not applicable	not applicable	not applicable	not applicable	not applicable	not applicable	not applicable	not applicable	not applicable
341.995	6.035	6	25_S25_combined_small.mp4	displayMockVid	not applicable	not applicable	not applicable	not applicable	not applicable	not applicable	not applicable	not applicable	not applicable	not applicable	not applicable	not applicable	not applicable	not applicable
348.03	52.646	6	25_S25_combined_small.mp4	displayVid	not applicable	not applicable	Makes handkerchief vanish and cuts open a roll chosen by an audience member revealing it is inside	remembered	remembered	The magician makes a silk handkerchief appear inside a bread roll.	5	remembered	remembered	remembered	remembered	remembered	remembered	remembered
401.995	3.998	6	25_S25_combined_small.mp4	fixationPostVid	not applicable	not applicable	not applicable	not applicable	not applicable	not applicable	not applicable	not applicable	not applicable	not applicable	not applicable	not applicable	not applicable	not applicable
405.993	6.002	6	25_S25_combined_small.mp4	displayAnswer	21 to 30	406.975846764999	not applicable	not applicable	not applicable	not applicable	not applicable	not applicable	not applicable	not applicable	not applicable	not applicable	not applicable	not applicable
411.995	0.05	6	25_S25_combined_small.mp4	fixationPostAnswer	not applicable	not applicable	not applicable	not applicable	not applicable	not applicable	not applicable	not applicable	not applicable	not applicable	not applicable	not applicable	not applicable	not applicable
412.045	5.95	6	25_S25_combined_small.mp4	displayCuriosity	3	413.646979875	not applicable	not applicable	not applicable	not applicable	not applicable	not applicable	not applicable	not applicable	not applicable	not applicable	not applicable	not applicable
417.994	4	6	25_S25_combined_small.mp4	fixationPostCuriosity	not applicable	not applicable	not applicable	not applicable	not applicable	not applicable	not applicable	not applicable	not applicable	not applicable	not applicable	not applicable	not applicable	not applicable
423.994	6.001	7	30_H15_combined_small.mp4	displayMockVid	not applicable	not applicable	not applicable	not applicable	not applicable	not applicable	not applicable	not applicable	not applicable	not applicable	not applicable	not applicable	not applicable	not applicable
429.995	31.92	7	30_H15_combined_small.mp4	displayVid	not applicable	not applicable	no recall	forgotten	forgotten	The magician pierces the deck of cards with a toothpick, but afterwards there is no hole.	3	forgotten	forgotten	forgotten	forgotten	forgotten	forgotten	forgotten
461.994	4	7	30_H15_combined_small.mp4	fixationPostVid	not applicable	not applicable	not applicable	not applicable	not applicable	not applicable	not applicable	not applicable	not applicable	not applicable	not applicable	not applicable	not applicable	not applicable
465.993	5.996	7	30_H15_combined_small.mp4	displayAnswer	21 to 30	468.097620631001	not applicable	not applicable	not applicable	not applicable	not applicable	not applicable	not applicable	not applicable	not applicable	not applicable	not applicable	not applicable
471.989	0.05	7	30_H15_combined_small.mp4	fixationPostAnswer	not applicable	not applicable	not applicable	not applicable	not applicable	not applicable	not applicable	not applicable	not applicable	not applicable	not applicable	not applicable	not applicable	not applicable
472.039	5.953	7	30_H15_combined_small.mp4	displayCuriosity	2	475.039340891999	not applicable	not applicable	not applicable	not applicable	not applicable	not applicable	not applicable	not applicable	not applicable	not applicable	not applicable	not applicable
477.993	4	7	30_H15_combined_small.mp4	fixationPostCuriosity	not applicable	not applicable	not applicable	not applicable	not applicable	not applicable	not applicable	not applicable	not applicable	not applicable	not applicable	not applicable	not applicable	not applicable
483.992	6.029	8	28_K24_combined_small.mp4	displayMockVid	not applicable	not applicable	not applicable	not applicable	not applicable	not applicable	not applicable	not applicable	not applicable	not applicable	not applicable	not applicable	not applicable	not applicable
490.021	24.216	8	28_K24_combined_small.mp4	displayVid	not applicable	not applicable	no recall	forgotten	forgotten	A £10 note is transformed into a £20  note.	2	remembered	forgotten	forgotten	forgotten	forgotten	forgotten	forgotten
515.995	5.997	8	28_K24_combined_small.mp4	fixationPostVid	not applicable	not applicable	not applicable	not applicable	not applicable	not applicable	not applicable	not applicable	not applicable	not applicable	not applicable	not applicable	not applicable	not applicable
521.992	6	8	28_K24_combined_small.mp4	displayAnswer	31 or more	522.978091939	not applicable	not applicable	not applicable	not applicable	not applicable	not applicable	not applicable	not applicable	not applicable	not applicable	not applicable	not applicable
527.992	0.05	8	28_K24_combined_small.mp4	fixationPostAnswer	not applicable	not applicable	not applicable	not applicable	not applicable	not applicable	not applicable	not applicable	not applicable	not applicable	not applicable	not applicable	not applicable	not applicable
528.042	5.951	8	28_K24_combined_small.mp4	displayCuriosity	1	531.481191669001	not applicable	not applicable	not applicable	not applicable	not applicable	not applicable	not applicable	not applicable	not applicable	not applicable	not applicable	not applicable
533.992	4	8	28_K24_combined_small.mp4	fixationPostCuriosity	not applicable	not applicable	not applicable	not applicable	not applicable	not applicable	not applicable	not applicable	not applicable	not applicable	not applicable	not applicable	not applicable	not applicable
539.992	6.002	9	33_S21_combined_small.mp4	displayMockVid	not applicable	not applicable	not applicable	not applicable	not applicable	not applicable	not applicable	not applicable	not applicable	not applicable	not applicable	not applicable	not applicable	not applicable
545.995	21.846	9	33_S21_combined_small.mp4	displayVid	not applicable	not applicable	makes the spoon bend between the handle and end breaking it into two pieces between finger and thumb	remembered	remembered	The magician detaches the head of a spoon by moving the handle up and down.	5	remembered	remembered	remembered	remembered	remembered	remembered	remembered
567.993	3.999	9	33_S21_combined_small.mp4	fixationPostVid	not applicable	not applicable	not applicable	not applicable	not applicable	not applicable	not applicable	not applicable	not applicable	not applicable	not applicable	not applicable	not applicable	not applicable
571.992	5.999	9	33_S21_combined_small.mp4	displayAnswer	31 or more	572.647684152002	not applicable	not applicable	not applicable	not applicable	not applicable	not applicable	not applicable	not applicable	not applicable	not applicable	not applicable	not applicable
577.992	0.05	9	33_S21_combined_small.mp4	fixationPostAnswer	not applicable	not applicable	not applicable	not applicable	not applicable	not applicable	not applicable	not applicable	not applicable	not applicable	not applicable	not applicable	not applicable	not applicable
578.042	5.95	9	33_S21_combined_small.mp4	displayCuriosity	2	580.127428750999	not applicable	not applicable	not applicable	not applicable	not applicable	not applicable	not applicable	not applicable	not applicable	not applicable	not applicable	not applicable
583.992	3.999	9	33_S21_combined_small.mp4	fixationPostCuriosity	not applicable	not applicable	not applicable	not applicable	not applicable	not applicable	not applicable	not applicable	not applicable	not applicable	not applicable	not applicable	not applicable	not applicable
589.991	6.003	10	14_K19_long_combined_small.mp4	displayMockVid	not applicable	not applicable	not applicable	not applicable	not applicable	not applicable	not applicable	not applicable	not applicable	not applicable	not applicable	not applicable	not applicable	not applicable
595.995	31.841	10	14_K19_long_combined_small.mp4	displayVid	not applicable	not applicable	no recall	forgotten	forgotten	The balls magically change their location and become a toy rabbit.	3	remembered	forgotten	forgotten	forgotten	forgotten	forgotten	forgotten
627.992	5.999	10	14_K19_long_combined_small.mp4	fixationPostVid	not applicable	not applicable	not applicable	not applicable	not applicable	not applicable	not applicable	not applicable	not applicable	not applicable	not applicable	not applicable	not applicable	not applicable
633.991	6	10	14_K19_long_combined_small.mp4	displayAnswer	21 to 30	635.320270417	not applicable	not applicable	not applicable	not applicable	not applicable	not applicable	not applicable	not applicable	not applicable	not applicable	not applicable	not applicable
639.99	0.05	10	14_K19_long_combined_small.mp4	fixationPostAnswer	not applicable	not applicable	not applicable	not applicable	not applicable	not applicable	not applicable	not applicable	not applicable	not applicable	not applicable	not applicable	not applicable	not applicable
640.04	5.951	10	14_K19_long_combined_small.mp4	displayCuriosity	4	641.898338044	not applicable	not applicable	not applicable	not applicable	not applicable	not applicable	not applicable	not applicable	not applicable	not applicable	not applicable	not applicable
645.991	6	10	14_K19_long_combined_small.mp4	fixationPostCuriosity	not applicable	not applicable	not applicable	not applicable	not applicable	not applicable	not applicable	not applicable	not applicable	not applicable	not applicable	not applicable	not applicable	not applicable
653.99	6.035	11	24_Trick28_combined_small.mp4	displayMockVid	not applicable	not applicable	not applicable	not applicable	not applicable	not applicable	not applicable	not applicable	not applicable	not applicable	not applicable	not applicable	not applicable	not applicable
660.026	40.444	11	24_Trick28_combined_small.mp4	displayVid	not applicable	not applicable	audience member holds a ring and by tapping another ring against it makes the two interlock	remembered	remembered	The magician links and unlinks several silver rings while they keep their shape.	4	remembered	remembered	remembered	remembered	remembered	remembered	remembered
701.99	4	11	24_Trick28_combined_small.mp4	fixationPostVid	not applicable	not applicable	not applicable	not applicable	not applicable	not applicable	not applicable	not applicable	not applicable	not applicable	not applicable	not applicable	not applicable	not applicable
705.99	6	11	24_Trick28_combined_small.mp4	displayAnswer	11 to 20	707.258068563002	not applicable	not applicable	not applicable	not applicable	not applicable	not applicable	not applicable	not applicable	not applicable	not applicable	not applicable	not applicable
711.99	0.049	11	24_Trick28_combined_small.mp4	fixationPostAnswer	not applicable	not applicable	not applicable	not applicable	not applicable	not applicable	not applicable	not applicable	not applicable	not applicable	not applicable	not applicable	not applicable	not applicable
712.04	5.95	11	24_Trick28_combined_small.mp4	displayCuriosity	4	715.440910131001	not applicable	not applicable	not applicable	not applicable	not applicable	not applicable	not applicable	not applicable	not applicable	not applicable	not applicable	not applicable
717.99	10	11	24_Trick28_combined_small.mp4	fixationPostCuriosity	not applicable	not applicable	not applicable	not applicable	not applicable	not applicable	not applicable	not applicable	not applicable	not applicable	not applicable	not applicable	not applicable	not applicable
729.99	6.035	12	15_S18_combined_small.mp4	displayMockVid	not applicable	not applicable	not applicable	not applicable	not applicable	not applicable	not applicable	not applicable	not applicable	not applicable	not applicable	not applicable	not applicable	not applicable
736.025	31.928	12	15_S18_combined_small.mp4	displayVid	not applicable	not applicable	pulls several bags out of the blue bag then crushes it up	remembered	remembered	The magician pulls three boxes containing flowers from a paper bag.	5	remembered	remembered	remembered	remembered	remembered	remembered	remembered
767.99	4	12	15_S18_combined_small.mp4	fixationPostVid	not applicable	not applicable	not applicable	not applicable	not applicable	not applicable	not applicable	not applicable	not applicable	not applicable	not applicable	not applicable	not applicable	not applicable
771.99	5.999	12	15_S18_combined_small.mp4	displayAnswer	0 to 10	774.034979530999	not applicable	not applicable	not applicable	not applicable	not applicable	not applicable	not applicable	not applicable	not applicable	not applicable	not applicable	not applicable
777.989	0.049	12	15_S18_combined_small.mp4	fixationPostAnswer	not applicable	not applicable	not applicable	not applicable	not applicable	not applicable	not applicable	not applicable	not applicable	not applicable	not applicable	not applicable	not applicable	not applicable
778.039	5.951	12	15_S18_combined_small.mp4	displayCuriosity	5	779.706718855999	not applicable	not applicable	not applicable	not applicable	not applicable	not applicable	not applicable	not applicable	not applicable	not applicable	not applicable	not applicable
783.99	4	12	15_S18_combined_small.mp4	fixationPostCuriosity	not applicable	not applicable	not applicable	not applicable	not applicable	not applicable	not applicable	not applicable	not applicable	not applicable	not applicable	not applicable	not applicable	not applicable
