onset	duration	trial	stim_file	event	response	response_timestamp	response_recall	trial_type_cuedRecallStrict	trial_type_cuedRecallLenient	response_recognition	response_confidence	trial_type_allConf	trial_type_highConf	trial_type_aboveAvgConf	trial_type_rememberedStrictAboveAvg	trial_type_rememberedLenientAboveAvg	trial_type_rememberedStrictHigh	trial_type_rememberedLenientHigh
1.999	6.026	25	30_H15_combined_small.mp4	displayMockVid	not applicable	not applicable	not applicable	not applicable	not applicable	not applicable	not applicable	not applicable	not applicable	not applicable	not applicable	not applicable	not applicable	not applicable
8.025	31.909	25	30_H15_combined_small.mp4	displayVid	not applicable	not applicable	no recall	forgotten	forgotten	The magician lets a card picked by the volunteer appear in the card box.	3	forgotten	forgotten	forgotten	forgotten	forgotten	forgotten	forgotten
40.002	3.997	25	30_H15_combined_small.mp4	fixationPostVid	not applicable	not applicable	not applicable	not applicable	not applicable	not applicable	not applicable	not applicable	not applicable	not applicable	not applicable	not applicable	not applicable	not applicable
43.999	5.999	25	30_H15_combined_small.mp4	displayAnswer	31 or more	45.705877756991	not applicable	not applicable	not applicable	not applicable	not applicable	not applicable	not applicable	not applicable	not applicable	not applicable	not applicable	not applicable
49.998	0.051	25	30_H15_combined_small.mp4	fixationPostAnswer	not applicable	not applicable	not applicable	not applicable	not applicable	not applicable	not applicable	not applicable	not applicable	not applicable	not applicable	not applicable	not applicable	not applicable
50.049	5.949	25	30_H15_combined_small.mp4	displayCuriosity	1	52.0238910510088	not applicable	not applicable	not applicable	not applicable	not applicable	not applicable	not applicable	not applicable	not applicable	not applicable	not applicable	not applicable
55.998	7.999	25	30_H15_combined_small.mp4	fixationPostCuriosity	not applicable	not applicable	not applicable	not applicable	not applicable	not applicable	not applicable	not applicable	not applicable	not applicable	not applicable	not applicable	not applicable	not applicable
65.998	6.024	26	21_S15_combined_small.mp4	displayMockVid	not applicable	not applicable	not applicable	not applicable	not applicable	not applicable	not applicable	not applicable	not applicable	not applicable	not applicable	not applicable	not applicable	not applicable
72.022	31.99	26	21_S15_combined_small.mp4	displayVid	not applicable	not applicable	no recall	forgotten	forgotten	The magician places a ring on the stem of the glass without breaking it.	3	remembered	forgotten	forgotten	forgotten	forgotten	forgotten	forgotten
105.995	4.002	26	21_S15_combined_small.mp4	fixationPostVid	not applicable	not applicable	not applicable	not applicable	not applicable	not applicable	not applicable	not applicable	not applicable	not applicable	not applicable	not applicable	not applicable	not applicable
109.997	6.002	26	21_S15_combined_small.mp4	displayAnswer	31 or more	110.816087737971	not applicable	not applicable	not applicable	not applicable	not applicable	not applicable	not applicable	not applicable	not applicable	not applicable	not applicable	not applicable
115.998	0.048	26	21_S15_combined_small.mp4	fixationPostAnswer	not applicable	not applicable	not applicable	not applicable	not applicable	not applicable	not applicable	not applicable	not applicable	not applicable	not applicable	not applicable	not applicable	not applicable
116.047	5.95	26	21_S15_combined_small.mp4	displayCuriosity	3	118.191023493011	not applicable	not applicable	not applicable	not applicable	not applicable	not applicable	not applicable	not applicable	not applicable	not applicable	not applicable	not applicable
121.997	4	26	21_S15_combined_small.mp4	fixationPostCuriosity	not applicable	not applicable	not applicable	not applicable	not applicable	not applicable	not applicable	not applicable	not applicable	not applicable	not applicable	not applicable	not applicable	not applicable
127.994	6.039	27	12_H37_combined_small.mp4	displayMockVid	not applicable	not applicable	not applicable	not applicable	not applicable	not applicable	not applicable	not applicable	not applicable	not applicable	not applicable	not applicable	not applicable	not applicable
134.033	28.769	27	12_H37_combined_small.mp4	displayVid	not applicable	not applicable	no recall	forgotten	forgotten	The magician detaches his thumb, but when he turns his hands, the thumb is reattached.	3	forgotten	forgotten	forgotten	forgotten	forgotten	forgotten	forgotten
163.988	4.003	27	12_H37_combined_small.mp4	fixationPostVid	not applicable	not applicable	not applicable	not applicable	not applicable	not applicable	not applicable	not applicable	not applicable	not applicable	not applicable	not applicable	not applicable	not applicable
167.99	6.003	27	12_H37_combined_small.mp4	displayAnswer	21 to 30	169.568887226982	not applicable	not applicable	not applicable	not applicable	not applicable	not applicable	not applicable	not applicable	not applicable	not applicable	not applicable	not applicable
173.993	0.049	27	12_H37_combined_small.mp4	fixationPostAnswer	not applicable	not applicable	not applicable	not applicable	not applicable	not applicable	not applicable	not applicable	not applicable	not applicable	not applicable	not applicable	not applicable	not applicable
174.042	5.954	27	12_H37_combined_small.mp4	displayCuriosity	4	177.168771033001	not applicable	not applicable	not applicable	not applicable	not applicable	not applicable	not applicable	not applicable	not applicable	not applicable	not applicable	not applicable
179.997	4	27	12_H37_combined_small.mp4	fixationPostCuriosity	not applicable	not applicable	not applicable	not applicable	not applicable	not applicable	not applicable	not applicable	not applicable	not applicable	not applicable	not applicable	not applicable	not applicable
185.984	6.041	28	18_Trick4_combined_small.mp4	displayMockVid	not applicable	not applicable	not applicable	not applicable	not applicable	not applicable	not applicable	not applicable	not applicable	not applicable	not applicable	not applicable	not applicable	not applicable
192.026	47.818	28	18_Trick4_combined_small.mp4	displayVid	not applicable	not applicable	the balloon inflated into a shape	forgotten	forgotten	The magician puts the mobile phone inside the balloon with a simple gesture of his hands.	5	remembered	remembered	remembered	remembered	remembered	remembered	remembered
239.993	4	28	18_Trick4_combined_small.mp4	fixationPostVid	not applicable	not applicable	not applicable	not applicable	not applicable	not applicable	not applicable	not applicable	not applicable	not applicable	not applicable	not applicable	not applicable	not applicable
243.993	6.002	28	18_Trick4_combined_small.mp4	displayAnswer	31 or more	244.655816124985	not applicable	not applicable	not applicable	not applicable	not applicable	not applicable	not applicable	not applicable	not applicable	not applicable	not applicable	not applicable
249.995	0.051	28	18_Trick4_combined_small.mp4	fixationPostAnswer	not applicable	not applicable	not applicable	not applicable	not applicable	not applicable	not applicable	not applicable	not applicable	not applicable	not applicable	not applicable	not applicable	not applicable
250.047	5.949	28	18_Trick4_combined_small.mp4	displayCuriosity	4	253.554062173003	not applicable	not applicable	not applicable	not applicable	not applicable	not applicable	not applicable	not applicable	not applicable	not applicable	not applicable	not applicable
255.996	4	28	18_Trick4_combined_small.mp4	fixationPostCuriosity	not applicable	not applicable	not applicable	not applicable	not applicable	not applicable	not applicable	not applicable	not applicable	not applicable	not applicable	not applicable	not applicable	not applicable
261.991	6.038	29	02_H10_combined_small.mp4	displayMockVid	not applicable	not applicable	not applicable	not applicable	not applicable	not applicable	not applicable	not applicable	not applicable	not applicable	not applicable	not applicable	not applicable	not applicable
268.029	30.853	29	02_H10_combined_small.mp4	displayVid	not applicable	not applicable	the card would fix itself	remembered	remembered	The magician is able to split and put back together a card.	3	forgotten	forgotten	forgotten	remembered	remembered	remembered	remembered
299.984	6.004	29	02_H10_combined_small.mp4	fixationPostVid	not applicable	not applicable	not applicable	not applicable	not applicable	not applicable	not applicable	not applicable	not applicable	not applicable	not applicable	not applicable	not applicable	not applicable
305.989	6.004	29	02_H10_combined_small.mp4	displayAnswer	11 to 20	306.385452053975	not applicable	not applicable	not applicable	not applicable	not applicable	not applicable	not applicable	not applicable	not applicable	not applicable	not applicable	not applicable
311.993	0.049	29	02_H10_combined_small.mp4	fixationPostAnswer	not applicable	not applicable	not applicable	not applicable	not applicable	not applicable	not applicable	not applicable	not applicable	not applicable	not applicable	not applicable	not applicable	not applicable
312.043	5.952	29	02_H10_combined_small.mp4	displayCuriosity	4	315.70865335397	not applicable	not applicable	not applicable	not applicable	not applicable	not applicable	not applicable	not applicable	not applicable	not applicable	not applicable	not applicable
317.994	4.001	29	02_H10_combined_small.mp4	fixationPostCuriosity	not applicable	not applicable	not applicable	not applicable	not applicable	not applicable	not applicable	not applicable	not applicable	not applicable	not applicable	not applicable	not applicable	not applicable
323.985	6.039	30	10_S27_combined_small.mp4	displayMockVid	not applicable	not applicable	not applicable	not applicable	not applicable	not applicable	not applicable	not applicable	not applicable	not applicable	not applicable	not applicable	not applicable	not applicable
330.024	31.57	30	10_S27_combined_small.mp4	displayVid	not applicable	not applicable	the cups were never full after adding water	forgotten	remembered	The magician pours water into a cup from the bottle, but when he tips it upside down, no water spills out.	4	forgotten	forgotten	forgotten	forgotten	remembered	forgotten	remembered
361.998	4	30	10_S27_combined_small.mp4	fixationPostVid	not applicable	not applicable	not applicable	not applicable	not applicable	not applicable	not applicable	not applicable	not applicable	not applicable	not applicable	not applicable	not applicable	not applicable
365.998	5.996	30	10_S27_combined_small.mp4	displayAnswer	21 to 30	366.708125452977	not applicable	not applicable	not applicable	not applicable	not applicable	not applicable	not applicable	not applicable	not applicable	not applicable	not applicable	not applicable
371.994	0.05	30	10_S27_combined_small.mp4	fixationPostAnswer	not applicable	not applicable	not applicable	not applicable	not applicable	not applicable	not applicable	not applicable	not applicable	not applicable	not applicable	not applicable	not applicable	not applicable
372.044	5.947	30	10_S27_combined_small.mp4	displayCuriosity	4	376.175944269984	not applicable	not applicable	not applicable	not applicable	not applicable	not applicable	not applicable	not applicable	not applicable	not applicable	not applicable	not applicable
377.991	4.002	30	10_S27_combined_small.mp4	fixationPostCuriosity	not applicable	not applicable	not applicable	not applicable	not applicable	not applicable	not applicable	not applicable	not applicable	not applicable	not applicable	not applicable	not applicable	not applicable
383.994	6.034	31	31_K3_combined_small.mp4	displayMockVid	not applicable	not applicable	not applicable	not applicable	not applicable	not applicable	not applicable	not applicable	not applicable	not applicable	not applicable	not applicable	not applicable	not applicable
390.029	25.893	31	31_K3_combined_small.mp4	displayVid	not applicable	not applicable	no recall	forgotten	forgotten	The magician makes ladybirds appear and then disappear again.	2	remembered	forgotten	forgotten	forgotten	forgotten	forgotten	forgotten
415.986	4.003	31	31_K3_combined_small.mp4	fixationPostVid	not applicable	not applicable	not applicable	not applicable	not applicable	not applicable	not applicable	not applicable	not applicable	not applicable	not applicable	not applicable	not applicable	not applicable
419.989	6.003	31	31_K3_combined_small.mp4	displayAnswer	31 or more	420.54375815799	not applicable	not applicable	not applicable	not applicable	not applicable	not applicable	not applicable	not applicable	not applicable	not applicable	not applicable	not applicable
425.991	0.05	31	31_K3_combined_small.mp4	fixationPostAnswer	not applicable	not applicable	not applicable	not applicable	not applicable	not applicable	not applicable	not applicable	not applicable	not applicable	not applicable	not applicable	not applicable	not applicable
426.041	5.952	31	31_K3_combined_small.mp4	displayCuriosity	4	429.316032813978	not applicable	not applicable	not applicable	not applicable	not applicable	not applicable	not applicable	not applicable	not applicable	not applicable	not applicable	not applicable
431.994	7.999	31	31_K3_combined_small.mp4	fixationPostCuriosity	not applicable	not applicable	not applicable	not applicable	not applicable	not applicable	not applicable	not applicable	not applicable	not applicable	not applicable	not applicable	not applicable	not applicable
441.986	6.041	32	27_S31_combined_small.mp4	displayMockVid	not applicable	not applicable	not applicable	not applicable	not applicable	not applicable	not applicable	not applicable	not applicable	not applicable	not applicable	not applicable	not applicable	not applicable
448.027	21.015	32	27_S31_combined_small.mp4	displayVid	not applicable	not applicable	no recall	forgotten	forgotten	The magician places chopsticks into an envelope, but is still able to crush the envelope and its contents into a paper ball.	2	remembered	forgotten	forgotten	forgotten	forgotten	forgotten	forgotten
469.992	4.002	32	27_S31_combined_small.mp4	fixationPostVid	not applicable	not applicable	not applicable	not applicable	not applicable	not applicable	not applicable	not applicable	not applicable	not applicable	not applicable	not applicable	not applicable	not applicable
473.993	6	32	27_S31_combined_small.mp4	displayAnswer	31 or more	474.464619136997	not applicable	not applicable	not applicable	not applicable	not applicable	not applicable	not applicable	not applicable	not applicable	not applicable	not applicable	not applicable
479.993	0.049	32	27_S31_combined_small.mp4	fixationPostAnswer	not applicable	not applicable	not applicable	not applicable	not applicable	not applicable	not applicable	not applicable	not applicable	not applicable	not applicable	not applicable	not applicable	not applicable
480.042	5.951	32	27_S31_combined_small.mp4	displayCuriosity	3	481.620116453967	not applicable	not applicable	not applicable	not applicable	not applicable	not applicable	not applicable	not applicable	not applicable	not applicable	not applicable	not applicable
485.993	3.999	32	27_S31_combined_small.mp4	fixationPostCuriosity	not applicable	not applicable	not applicable	not applicable	not applicable	not applicable	not applicable	not applicable	not applicable	not applicable	not applicable	not applicable	not applicable	not applicable
491.989	6.021	33	15_S18_combined_small.mp4	displayMockVid	not applicable	not applicable	not applicable	not applicable	not applicable	not applicable	not applicable	not applicable	not applicable	not applicable	not applicable	not applicable	not applicable	not applicable
498.011	31.944	33	15_S18_combined_small.mp4	displayVid	not applicable	not applicable	no recall	forgotten	forgotten	The magician pulls three boxes containing flowers from a paper bag.	3	remembered	forgotten	forgotten	forgotten	forgotten	forgotten	forgotten
529.984	4.002	33	15_S18_combined_small.mp4	fixationPostVid	not applicable	not applicable	not applicable	not applicable	not applicable	not applicable	not applicable	not applicable	not applicable	not applicable	not applicable	not applicable	not applicable	not applicable
533.986	6.004	33	15_S18_combined_small.mp4	displayAnswer	11 to 20	534.516092186968	not applicable	not applicable	not applicable	not applicable	not applicable	not applicable	not applicable	not applicable	not applicable	not applicable	not applicable	not applicable
539.99	0.05	33	15_S18_combined_small.mp4	fixationPostAnswer	not applicable	not applicable	not applicable	not applicable	not applicable	not applicable	not applicable	not applicable	not applicable	not applicable	not applicable	not applicable	not applicable	not applicable
540.04	5.952	33	15_S18_combined_small.mp4	displayCuriosity	3	541.39749735099	not applicable	not applicable	not applicable	not applicable	not applicable	not applicable	not applicable	not applicable	not applicable	not applicable	not applicable	not applicable
545.992	3.999	33	15_S18_combined_small.mp4	fixationPostCuriosity	not applicable	not applicable	not applicable	not applicable	not applicable	not applicable	not applicable	not applicable	not applicable	not applicable	not applicable	not applicable	not applicable	not applicable
551.982	6.027	34	23_K10_combined_small.mp4	displayMockVid	not applicable	not applicable	not applicable	not applicable	not applicable	not applicable	not applicable	not applicable	not applicable	not applicable	not applicable	not applicable	not applicable	not applicable
558.009	23.431	34	23_K10_combined_small.mp4	displayVid	not applicable	not applicable	link then unlink	remembered	remembered	The safety pins magically interlock without breaking the seal.	4	remembered	remembered	remembered	remembered	remembered	remembered	remembered
581.991	3.999	34	23_K10_combined_small.mp4	fixationPostVid	not applicable	not applicable	not applicable	not applicable	not applicable	not applicable	not applicable	not applicable	not applicable	not applicable	not applicable	not applicable	not applicable	not applicable
585.99	6.002	34	23_K10_combined_small.mp4	displayAnswer	21 to 30	586.484847804997	not applicable	not applicable	not applicable	not applicable	not applicable	not applicable	not applicable	not applicable	not applicable	not applicable	not applicable	not applicable
591.991	0.049	34	23_K10_combined_small.mp4	fixationPostAnswer	not applicable	not applicable	not applicable	not applicable	not applicable	not applicable	not applicable	not applicable	not applicable	not applicable	not applicable	not applicable	not applicable	not applicable
592.04	5.952	34	23_K10_combined_small.mp4	displayCuriosity	3	593.743123329012	not applicable	not applicable	not applicable	not applicable	not applicable	not applicable	not applicable	not applicable	not applicable	not applicable	not applicable	not applicable
597.992	9.998	34	23_K10_combined_small.mp4	fixationPostCuriosity	not applicable	not applicable	not applicable	not applicable	not applicable	not applicable	not applicable	not applicable	not applicable	not applicable	not applicable	not applicable	not applicable	not applicable
609.99	6.002	35	34_Trick38_combined_small.mp4	displayMockVid	not applicable	not applicable	not applicable	not applicable	not applicable	not applicable	not applicable	not applicable	not applicable	not applicable	not applicable	not applicable	not applicable	not applicable
615.993	27.451	35	34_Trick38_combined_small.mp4	displayVid	not applicable	not applicable	no recall	forgotten	forgotten	The magician closes one fist around a silk handkerchief and makes it disappear. Then, he makes it appear in his other hand.	3	remembered	forgotten	forgotten	forgotten	forgotten	forgotten	forgotten
643.983	4.002	35	34_Trick38_combined_small.mp4	fixationPostVid	not applicable	not applicable	not applicable	not applicable	not applicable	not applicable	not applicable	not applicable	not applicable	not applicable	not applicable	not applicable	not applicable	not applicable
647.985	6.005	35	34_Trick38_combined_small.mp4	displayAnswer	21 to 30	649.027862776013	not applicable	not applicable	not applicable	not applicable	not applicable	not applicable	not applicable	not applicable	not applicable	not applicable	not applicable	not applicable
653.99	0.049	35	34_Trick38_combined_small.mp4	fixationPostAnswer	not applicable	not applicable	not applicable	not applicable	not applicable	not applicable	not applicable	not applicable	not applicable	not applicable	not applicable	not applicable	not applicable	not applicable
654.039	5.951	35	34_Trick38_combined_small.mp4	displayCuriosity	1	656.269722884987	not applicable	not applicable	not applicable	not applicable	not applicable	not applicable	not applicable	not applicable	not applicable	not applicable	not applicable	not applicable
659.991	3.999	35	34_Trick38_combined_small.mp4	fixationPostCuriosity	not applicable	not applicable	not applicable	not applicable	not applicable	not applicable	not applicable	not applicable	not applicable	not applicable	not applicable	not applicable	not applicable	not applicable
665.981	6.04	36	13_Trick6_short_combined_small.mp4	displayMockVid	not applicable	not applicable	not applicable	not applicable	not applicable	not applicable	not applicable	not applicable	not applicable	not applicable	not applicable	not applicable	not applicable	not applicable
672.022	37.645	36	13_Trick6_short_combined_small.mp4	displayVid	not applicable	not applicable	the ball would switch places	remembered	remembered	The magician puts the ball under the cup and makes it disappear.	3	forgotten	forgotten	forgotten	remembered	remembered	remembered	remembered
709.979	10.007	36	13_Trick6_short_combined_small.mp4	fixationPostVid	not applicable	not applicable	not applicable	not applicable	not applicable	not applicable	not applicable	not applicable	not applicable	not applicable	not applicable	not applicable	not applicable	not applicable
719.986	6.003	36	13_Trick6_short_combined_small.mp4	displayAnswer	31 or more	720.847622454981	not applicable	not applicable	not applicable	not applicable	not applicable	not applicable	not applicable	not applicable	not applicable	not applicable	not applicable	not applicable
725.989	0.05	36	13_Trick6_short_combined_small.mp4	fixationPostAnswer	not applicable	not applicable	not applicable	not applicable	not applicable	not applicable	not applicable	not applicable	not applicable	not applicable	not applicable	not applicable	not applicable	not applicable
726.039	5.95	36	13_Trick6_short_combined_small.mp4	displayCuriosity	3	728.349350086006	not applicable	not applicable	not applicable	not applicable	not applicable	not applicable	not applicable	not applicable	not applicable	not applicable	not applicable	not applicable
731.989	4	36	13_Trick6_short_combined_small.mp4	fixationPostCuriosity	not applicable	not applicable	not applicable	not applicable	not applicable	not applicable	not applicable	not applicable	not applicable	not applicable	not applicable	not applicable	not applicable	not applicable
