onset	duration	trial	stim_file	event	response	response_timestamp	response_recall	trial_type_cuedRecallStrict	trial_type_cuedRecallLenient	response_recognition	response_confidence	trial_type_allConf	trial_type_highConf	trial_type_aboveAvgConf	trial_type_rememberedStrictAboveAvg	trial_type_rememberedLenientAboveAvg	trial_type_rememberedStrictHigh	trial_type_rememberedLenientHigh
2	6.037	13	06_H7_combined_small.mp4	displayMockVid	not applicable	not applicable	not applicable	not applicable	not applicable	not applicable	not applicable	not applicable	not applicable	not applicable	not applicable	not applicable	not applicable	not applicable
8.037	33.851	13	06_H7_combined_small.mp4	displayVid	not applicable	not applicable	no recall	forgotten	forgotten	The magician wraps the salt shaker in the cloth and makes it disappear.	2	forgotten	forgotten	forgotten	forgotten	forgotten	forgotten	forgotten
41.995	6.005	13	06_H7_combined_small.mp4	fixationPostVid	not applicable	not applicable	not applicable	not applicable	not applicable	not applicable	not applicable	not applicable	not applicable	not applicable	not applicable	not applicable	not applicable	not applicable
48.001	6.001	13	06_H7_combined_small.mp4	displayAnswer	0 to 10	49.1259220370121	not applicable	not applicable	not applicable	not applicable	not applicable	not applicable	not applicable	not applicable	not applicable	not applicable	not applicable	not applicable
54.001	0.05	13	06_H7_combined_small.mp4	fixationPostAnswer	not applicable	not applicable	not applicable	not applicable	not applicable	not applicable	not applicable	not applicable	not applicable	not applicable	not applicable	not applicable	not applicable	not applicable
54.051	5.951	13	06_H7_combined_small.mp4	displayCuriosity	6	56.0429257110081	not applicable	not applicable	not applicable	not applicable	not applicable	not applicable	not applicable	not applicable	not applicable	not applicable	not applicable	not applicable
60.003	3.999	13	06_H7_combined_small.mp4	fixationPostCuriosity	not applicable	not applicable	not applicable	not applicable	not applicable	not applicable	not applicable	not applicable	not applicable	not applicable	not applicable	not applicable	not applicable	not applicable
65.996	6.041	14	13_Trick6_short_combined_small.mp4	displayMockVid	not applicable	not applicable	not applicable	not applicable	not applicable	not applicable	not applicable	not applicable	not applicable	not applicable	not applicable	not applicable	not applicable	not applicable
72.037	37.638	14	13_Trick6_short_combined_small.mp4	displayVid	not applicable	not applicable	he took more number of red balls from inside by inserting one initially into the cup	forgotten	forgotten	The magician puts a ball under the cup, which then turns into a larger ball and then becomes an egg.	5	remembered	remembered	remembered	remembered	remembered	remembered	remembered
109.995	4.003	14	13_Trick6_short_combined_small.mp4	fixationPostVid	not applicable	not applicable	not applicable	not applicable	not applicable	not applicable	not applicable	not applicable	not applicable	not applicable	not applicable	not applicable	not applicable	not applicable
113.998	6.003	14	13_Trick6_short_combined_small.mp4	displayAnswer	21 to 30	114.689592621013	not applicable	not applicable	not applicable	not applicable	not applicable	not applicable	not applicable	not applicable	not applicable	not applicable	not applicable	not applicable
120.001	0.049	14	13_Trick6_short_combined_small.mp4	fixationPostAnswer	not applicable	not applicable	not applicable	not applicable	not applicable	not applicable	not applicable	not applicable	not applicable	not applicable	not applicable	not applicable	not applicable	not applicable
120.05	5.951	14	13_Trick6_short_combined_small.mp4	displayCuriosity	6	122.398619154003	not applicable	not applicable	not applicable	not applicable	not applicable	not applicable	not applicable	not applicable	not applicable	not applicable	not applicable	not applicable
126.001	3.999	14	13_Trick6_short_combined_small.mp4	fixationPostCuriosity	not applicable	not applicable	not applicable	not applicable	not applicable	not applicable	not applicable	not applicable	not applicable	not applicable	not applicable	not applicable	not applicable	not applicable
131.995	6.006	15	36_Trick7_short_combined_small.mp4	displayMockVid	not applicable	not applicable	not applicable	not applicable	not applicable	not applicable	not applicable	not applicable	not applicable	not applicable	not applicable	not applicable	not applicable	not applicable
138	20.649	15	36_Trick7_short_combined_small.mp4	displayVid	not applicable	not applicable	it was one small ball initially and turned to two and bigger in sizw by magician	remembered	remembered	The magician gets the volunteer to hold a foam ball, which he then transforms into  two balls.	1	remembered	forgotten	forgotten	remembered	remembered	remembered	remembered
159.998	10.002	15	36_Trick7_short_combined_small.mp4	fixationPostVid	not applicable	not applicable	not applicable	not applicable	not applicable	not applicable	not applicable	not applicable	not applicable	not applicable	not applicable	not applicable	not applicable	not applicable
170	6	15	36_Trick7_short_combined_small.mp4	displayAnswer	11 to 20	170.699079147002	not applicable	not applicable	not applicable	not applicable	not applicable	not applicable	not applicable	not applicable	not applicable	not applicable	not applicable	not applicable
176	0.05	15	36_Trick7_short_combined_small.mp4	fixationPostAnswer	not applicable	not applicable	not applicable	not applicable	not applicable	not applicable	not applicable	not applicable	not applicable	not applicable	not applicable	not applicable	not applicable	not applicable
176.05	5.946	15	36_Trick7_short_combined_small.mp4	displayCuriosity	6	178.116275266002	not applicable	not applicable	not applicable	not applicable	not applicable	not applicable	not applicable	not applicable	not applicable	not applicable	not applicable	not applicable
181.996	4.004	15	36_Trick7_short_combined_small.mp4	fixationPostCuriosity	not applicable	not applicable	not applicable	not applicable	not applicable	not applicable	not applicable	not applicable	not applicable	not applicable	not applicable	not applicable	not applicable	not applicable
188	6.036	16	02_H10_combined_small.mp4	displayMockVid	not applicable	not applicable	not applicable	not applicable	not applicable	not applicable	not applicable	not applicable	not applicable	not applicable	not applicable	not applicable	not applicable	not applicable
194.035	30.847	16	02_H10_combined_small.mp4	displayVid	not applicable	not applicable	4 pieces of cards were joined together by getting them all closer and it was formed into new card with without any crack on it 	remembered	remembered	The magician magically repairs split card.	6	remembered	remembered	remembered	remembered	remembered	remembered	remembered
225.996	4.002	16	02_H10_combined_small.mp4	fixationPostVid	not applicable	not applicable	not applicable	not applicable	not applicable	not applicable	not applicable	not applicable	not applicable	not applicable	not applicable	not applicable	not applicable	not applicable
229.998	6.001	16	02_H10_combined_small.mp4	displayAnswer	11 to 20	232.327514231001	not applicable	not applicable	not applicable	not applicable	not applicable	not applicable	not applicable	not applicable	not applicable	not applicable	not applicable	not applicable
235.999	0.05	16	02_H10_combined_small.mp4	fixationPostAnswer	not applicable	not applicable	not applicable	not applicable	not applicable	not applicable	not applicable	not applicable	not applicable	not applicable	not applicable	not applicable	not applicable	not applicable
236.049	5.951	16	02_H10_combined_small.mp4	displayCuriosity	6	238.807065250003	not applicable	not applicable	not applicable	not applicable	not applicable	not applicable	not applicable	not applicable	not applicable	not applicable	not applicable	not applicable
242	4	16	02_H10_combined_small.mp4	fixationPostCuriosity	not applicable	not applicable	not applicable	not applicable	not applicable	not applicable	not applicable	not applicable	not applicable	not applicable	not applicable	not applicable	not applicable	not applicable
247.994	6.04	17	16_H19_combined_small.mp4	displayMockVid	not applicable	not applicable	not applicable	not applicable	not applicable	not applicable	not applicable	not applicable	not applicable	not applicable	not applicable	not applicable	not applicable	not applicable
254.034	22.616	17	16_H19_combined_small.mp4	displayVid	not applicable	not applicable	He took the match sticks and by tricks was able to make them stand on air on its own	forgotten	forgotten	The magician places paper in volunteer's hand and sets it alight, revealing a red sponge ball.	1	remembered	forgotten	forgotten	forgotten	forgotten	forgotten	forgotten
278	3.999	17	16_H19_combined_small.mp4	fixationPostVid	not applicable	not applicable	not applicable	not applicable	not applicable	not applicable	not applicable	not applicable	not applicable	not applicable	not applicable	not applicable	not applicable	not applicable
281.999	6	17	16_H19_combined_small.mp4	displayAnswer	0 to 10	283.297128061007	not applicable	not applicable	not applicable	not applicable	not applicable	not applicable	not applicable	not applicable	not applicable	not applicable	not applicable	not applicable
287.999	0.049	17	16_H19_combined_small.mp4	fixationPostAnswer	not applicable	not applicable	not applicable	not applicable	not applicable	not applicable	not applicable	not applicable	not applicable	not applicable	not applicable	not applicable	not applicable	not applicable
288.048	5.946	17	16_H19_combined_small.mp4	displayCuriosity	6	290.707449754002	not applicable	not applicable	not applicable	not applicable	not applicable	not applicable	not applicable	not applicable	not applicable	not applicable	not applicable	not applicable
293.995	4.002	17	16_H19_combined_small.mp4	fixationPostCuriosity	not applicable	not applicable	not applicable	not applicable	not applicable	not applicable	not applicable	not applicable	not applicable	not applicable	not applicable	not applicable	not applicable	not applicable
299.998	6.025	18	26_S30_combined_small.mp4	displayMockVid	not applicable	not applicable	not applicable	not applicable	not applicable	not applicable	not applicable	not applicable	not applicable	not applicable	not applicable	not applicable	not applicable	not applicable
306.023	25.175	18	26_S30_combined_small.mp4	displayVid	not applicable	not applicable	Although it looked like there was no attachment between the two stick magician was able to pull the thread from other stick to decrease the length from the longer stick without even touching the longer stick thread	remembered	remembered	The magician pulls string through two sticks which appear to be connected. However he then reveals thw two sticks are not connected at all.	6	remembered	remembered	remembered	remembered	remembered	remembered	remembered
331.999	4	18	26_S30_combined_small.mp4	fixationPostVid	not applicable	not applicable	not applicable	not applicable	not applicable	not applicable	not applicable	not applicable	not applicable	not applicable	not applicable	not applicable	not applicable	not applicable
335.999	5.996	18	26_S30_combined_small.mp4	displayAnswer	31 or more	336.735956314005	not applicable	not applicable	not applicable	not applicable	not applicable	not applicable	not applicable	not applicable	not applicable	not applicable	not applicable	not applicable
341.996	0.049	18	26_S30_combined_small.mp4	fixationPostAnswer	not applicable	not applicable	not applicable	not applicable	not applicable	not applicable	not applicable	not applicable	not applicable	not applicable	not applicable	not applicable	not applicable	not applicable
342.044	5.953	18	26_S30_combined_small.mp4	displayCuriosity	7	343.731853423	not applicable	not applicable	not applicable	not applicable	not applicable	not applicable	not applicable	not applicable	not applicable	not applicable	not applicable	not applicable
347.998	4.001	18	26_S30_combined_small.mp4	fixationPostCuriosity	not applicable	not applicable	not applicable	not applicable	not applicable	not applicable	not applicable	not applicable	not applicable	not applicable	not applicable	not applicable	not applicable	not applicable
353.997	6.03	19	33_S21_combined_small.mp4	displayMockVid	not applicable	not applicable	not applicable	not applicable	not applicable	not applicable	not applicable	not applicable	not applicable	not applicable	not applicable	not applicable	not applicable	not applicable
360.027	21.823	19	33_S21_combined_small.mp4	displayVid	not applicable	not applicable	the spoon was bend accordingly as and when the magician moved his right hand up and down	remembered	remembered	The magician bents the spoon only sing his pinkie as a force.	5	forgotten	forgotten	forgotten	remembered	remembered	remembered	remembered
381.991	8.005	19	33_S21_combined_small.mp4	fixationPostVid	not applicable	not applicable	not applicable	not applicable	not applicable	not applicable	not applicable	not applicable	not applicable	not applicable	not applicable	not applicable	not applicable	not applicable
389.996	6.002	19	33_S21_combined_small.mp4	displayAnswer	11 to 20	391.154737937002	not applicable	not applicable	not applicable	not applicable	not applicable	not applicable	not applicable	not applicable	not applicable	not applicable	not applicable	not applicable
395.998	0.049	19	33_S21_combined_small.mp4	fixationPostAnswer	not applicable	not applicable	not applicable	not applicable	not applicable	not applicable	not applicable	not applicable	not applicable	not applicable	not applicable	not applicable	not applicable	not applicable
396.047	5.951	19	33_S21_combined_small.mp4	displayCuriosity	2	399.186741024008	not applicable	not applicable	not applicable	not applicable	not applicable	not applicable	not applicable	not applicable	not applicable	not applicable	not applicable	not applicable
401.998	4	19	33_S21_combined_small.mp4	fixationPostCuriosity	not applicable	not applicable	not applicable	not applicable	not applicable	not applicable	not applicable	not applicable	not applicable	not applicable	not applicable	not applicable	not applicable	not applicable
407.993	6.04	20	19_H17_combined_small.mp4	displayMockVid	not applicable	not applicable	not applicable	not applicable	not applicable	not applicable	not applicable	not applicable	not applicable	not applicable	not applicable	not applicable	not applicable	not applicable
414.033	46.613	20	19_H17_combined_small.mp4	displayVid	not applicable	not applicable	no recall	forgotten	forgotten	The magician places the bread sticks in the bag, when the volunteer looks into the bag the bread sticks have transformed into a bun.	2	forgotten	forgotten	forgotten	forgotten	forgotten	forgotten	forgotten
461.997	4	20	19_H17_combined_small.mp4	fixationPostVid	not applicable	not applicable	not applicable	not applicable	not applicable	not applicable	not applicable	not applicable	not applicable	not applicable	not applicable	not applicable	not applicable	not applicable
465.997	6	20	19_H17_combined_small.mp4	displayAnswer	11 to 20	467.74906784101	not applicable	not applicable	not applicable	not applicable	not applicable	not applicable	not applicable	not applicable	not applicable	not applicable	not applicable	not applicable
471.997	0.049	20	19_H17_combined_small.mp4	fixationPostAnswer	not applicable	not applicable	not applicable	not applicable	not applicable	not applicable	not applicable	not applicable	not applicable	not applicable	not applicable	not applicable	not applicable	not applicable
472.045	5.948	20	19_H17_combined_small.mp4	displayCuriosity	6	474.865709646008	not applicable	not applicable	not applicable	not applicable	not applicable	not applicable	not applicable	not applicable	not applicable	not applicable	not applicable	not applicable
477.993	4.002	20	19_H17_combined_small.mp4	fixationPostCuriosity	not applicable	not applicable	not applicable	not applicable	not applicable	not applicable	not applicable	not applicable	not applicable	not applicable	not applicable	not applicable	not applicable	not applicable
483.996	6.035	21	11_K21_long_combined_small.mp4	displayMockVid	not applicable	not applicable	not applicable	not applicable	not applicable	not applicable	not applicable	not applicable	not applicable	not applicable	not applicable	not applicable	not applicable	not applicable
490.031	43.769	21	11_K21_long_combined_small.mp4	displayVid	not applicable	not applicable	no recall	forgotten	forgotten	The magician places a card between two other cards and makes it disappear.	5	forgotten	forgotten	forgotten	forgotten	forgotten	forgotten	forgotten
533.997	4	21	11_K21_long_combined_small.mp4	fixationPostVid	not applicable	not applicable	not applicable	not applicable	not applicable	not applicable	not applicable	not applicable	not applicable	not applicable	not applicable	not applicable	not applicable	not applicable
537.997	5.998	21	11_K21_long_combined_small.mp4	displayAnswer	21 to 30	538.558318643001	not applicable	not applicable	not applicable	not applicable	not applicable	not applicable	not applicable	not applicable	not applicable	not applicable	not applicable	not applicable
543.994	0.046	21	11_K21_long_combined_small.mp4	fixationPostAnswer	not applicable	not applicable	not applicable	not applicable	not applicable	not applicable	not applicable	not applicable	not applicable	not applicable	not applicable	not applicable	not applicable	not applicable
544.04	5.955	21	11_K21_long_combined_small.mp4	displayCuriosity	6	547.734728406009	not applicable	not applicable	not applicable	not applicable	not applicable	not applicable	not applicable	not applicable	not applicable	not applicable	not applicable	not applicable
549.995	8	21	11_K21_long_combined_small.mp4	fixationPostCuriosity	not applicable	not applicable	not applicable	not applicable	not applicable	not applicable	not applicable	not applicable	not applicable	not applicable	not applicable	not applicable	not applicable	not applicable
559.995	6.03	22	31_K3_combined_small.mp4	displayMockVid	not applicable	not applicable	not applicable	not applicable	not applicable	not applicable	not applicable	not applicable	not applicable	not applicable	not applicable	not applicable	not applicable	not applicable
566.026	25.901	22	31_K3_combined_small.mp4	displayVid	not applicable	not applicable	no recall	forgotten	forgotten	The magician changes the colour of the leaf several times.	1	forgotten	forgotten	forgotten	forgotten	forgotten	forgotten	forgotten
591.993	4.002	22	31_K3_combined_small.mp4	fixationPostVid	not applicable	not applicable	not applicable	not applicable	not applicable	not applicable	not applicable	not applicable	not applicable	not applicable	not applicable	not applicable	not applicable	not applicable
595.995	5.999	22	31_K3_combined_small.mp4	displayAnswer	21 to 30	597.531105433009	not applicable	not applicable	not applicable	not applicable	not applicable	not applicable	not applicable	not applicable	not applicable	not applicable	not applicable	not applicable
601.994	0.05	22	31_K3_combined_small.mp4	fixationPostAnswer	not applicable	not applicable	not applicable	not applicable	not applicable	not applicable	not applicable	not applicable	not applicable	not applicable	not applicable	not applicable	not applicable	not applicable
602.044	5.95	22	31_K3_combined_small.mp4	displayCuriosity	4	604.10382847501	not applicable	not applicable	not applicable	not applicable	not applicable	not applicable	not applicable	not applicable	not applicable	not applicable	not applicable	not applicable
607.994	4.001	22	31_K3_combined_small.mp4	fixationPostCuriosity	not applicable	not applicable	not applicable	not applicable	not applicable	not applicable	not applicable	not applicable	not applicable	not applicable	not applicable	not applicable	not applicable	not applicable
613.991	6.008	23	14_K19_long_combined_small.mp4	displayMockVid	not applicable	not applicable	not applicable	not applicable	not applicable	not applicable	not applicable	not applicable	not applicable	not applicable	not applicable	not applicable	not applicable	not applicable
619.998	31.848	23	14_K19_long_combined_small.mp4	displayVid	not applicable	not applicable	no recall	forgotten	forgotten	The red balls are placed under the mug and merge to become a form a larger ball.	1	forgotten	forgotten	forgotten	forgotten	forgotten	forgotten	forgotten
651.986	4.003	23	14_K19_long_combined_small.mp4	fixationPostVid	not applicable	not applicable	not applicable	not applicable	not applicable	not applicable	not applicable	not applicable	not applicable	not applicable	not applicable	not applicable	not applicable	not applicable
655.989	6.005	23	14_K19_long_combined_small.mp4	displayAnswer	0 to 10	656.805668358007	not applicable	not applicable	not applicable	not applicable	not applicable	not applicable	not applicable	not applicable	not applicable	not applicable	not applicable	not applicable
661.994	0.048	23	14_K19_long_combined_small.mp4	fixationPostAnswer	not applicable	not applicable	not applicable	not applicable	not applicable	not applicable	not applicable	not applicable	not applicable	not applicable	not applicable	not applicable	not applicable	not applicable
662.042	5.952	23	14_K19_long_combined_small.mp4	displayCuriosity	4	665.107785453001	not applicable	not applicable	not applicable	not applicable	not applicable	not applicable	not applicable	not applicable	not applicable	not applicable	not applicable	not applicable
667.994	4	23	14_K19_long_combined_small.mp4	fixationPostCuriosity	not applicable	not applicable	not applicable	not applicable	not applicable	not applicable	not applicable	not applicable	not applicable	not applicable	not applicable	not applicable	not applicable	not applicable
673.994	6.031	24	27_S31_combined_small.mp4	displayMockVid	not applicable	not applicable	not applicable	not applicable	not applicable	not applicable	not applicable	not applicable	not applicable	not applicable	not applicable	not applicable	not applicable	not applicable
680.025	21.014	24	27_S31_combined_small.mp4	displayVid	not applicable	not applicable	NO recall	forgotten	forgotten	The magician transforms the envelope into a £10 note.	5	forgotten	forgotten	forgotten	forgotten	forgotten	forgotten	forgotten
701.988	10.005	24	27_S31_combined_small.mp4	fixationPostVid	not applicable	not applicable	not applicable	not applicable	not applicable	not applicable	not applicable	not applicable	not applicable	not applicable	not applicable	not applicable	not applicable	not applicable
711.993	6	24	27_S31_combined_small.mp4	displayAnswer	11 to 20	713.31776429301	not applicable	not applicable	not applicable	not applicable	not applicable	not applicable	not applicable	not applicable	not applicable	not applicable	not applicable	not applicable
717.993	0.049	24	27_S31_combined_small.mp4	fixationPostAnswer	not applicable	not applicable	not applicable	not applicable	not applicable	not applicable	not applicable	not applicable	not applicable	not applicable	not applicable	not applicable	not applicable	not applicable
718.043	5.95	24	27_S31_combined_small.mp4	displayCuriosity	1	720.496998599003	not applicable	not applicable	not applicable	not applicable	not applicable	not applicable	not applicable	not applicable	not applicable	not applicable	not applicable	not applicable
723.993	3.998	24	27_S31_combined_small.mp4	fixationPostCuriosity	not applicable	not applicable	not applicable	not applicable	not applicable	not applicable	not applicable	not applicable	not applicable	not applicable	not applicable	not applicable	not applicable	not applicable
