onset	duration	trial	stim_file	event	response	response_timestamp	response_recall	trial_type_cuedRecallStrict	trial_type_cuedRecallLenient	response_recognition	response_confidence	trial_type_allConf	trial_type_highConf	trial_type_aboveAvgConf	trial_type_rememberedStrictAboveAvg	trial_type_rememberedLenientAboveAvg	trial_type_rememberedStrictHigh	trial_type_rememberedLenientHigh
2.001	6.002	1	36_Trick7_short_combined_small.mp4	displayMockVid	not applicable	not applicable	not applicable	not applicable	not applicable	not applicable	not applicable	not applicable	not applicable	not applicable	not applicable	not applicable	not applicable	not applicable
8.003	20.649	1	36_Trick7_short_combined_small.mp4	displayVid	not applicable	not applicable	no recall	forgotten	forgotten	The magician gets the volunteer to hold a foam ball, which he then transforms into  two balls.	4	remembered	remembered	forgotten	forgotten	forgotten	remembered	remembered
29.998	4.002	1	36_Trick7_short_combined_small.mp4	fixationPostVid	not applicable	not applicable	not applicable	not applicable	not applicable	not applicable	not applicable	not applicable	not applicable	not applicable	not applicable	not applicable	not applicable	not applicable
34	6	1	36_Trick7_short_combined_small.mp4	displayAnswer	11 to 20	35.1052260069991	not applicable	not applicable	not applicable	not applicable	not applicable	not applicable	not applicable	not applicable	not applicable	not applicable	not applicable	not applicable
40	0.05	1	36_Trick7_short_combined_small.mp4	fixationPostAnswer	not applicable	not applicable	not applicable	not applicable	not applicable	not applicable	not applicable	not applicable	not applicable	not applicable	not applicable	not applicable	not applicable	not applicable
40.05	5.949	1	36_Trick7_short_combined_small.mp4	displayCuriosity	3	42.3226672140008	not applicable	not applicable	not applicable	not applicable	not applicable	not applicable	not applicable	not applicable	not applicable	not applicable	not applicable	not applicable
45.999	3.996	1	36_Trick7_short_combined_small.mp4	fixationPostCuriosity	not applicable	not applicable	not applicable	not applicable	not applicable	not applicable	not applicable	not applicable	not applicable	not applicable	not applicable	not applicable	not applicable	not applicable
51.998	6.038	2	05_K4_combined_small.mp4	displayMockVid	not applicable	not applicable	not applicable	not applicable	not applicable	not applicable	not applicable	not applicable	not applicable	not applicable	not applicable	not applicable	not applicable	not applicable
58.036	31.174	2	05_K4_combined_small.mp4	displayVid	not applicable	not applicable	turns the parts of the cube so each side has one colour. then does a few more moves and all colours suddenly disappear	forgotten	forgotten	The magician shakes the rubix cube and it becomes all white.	5	forgotten	forgotten	forgotten	forgotten	forgotten	forgotten	forgotten
90.002	4	2	05_K4_combined_small.mp4	fixationPostVid	not applicable	not applicable	not applicable	not applicable	not applicable	not applicable	not applicable	not applicable	not applicable	not applicable	not applicable	not applicable	not applicable	not applicable
94.002	5.996	2	05_K4_combined_small.mp4	displayAnswer	31 or more	95.1870152000047	not applicable	not applicable	not applicable	not applicable	not applicable	not applicable	not applicable	not applicable	not applicable	not applicable	not applicable	not applicable
99.998	0.05	2	05_K4_combined_small.mp4	fixationPostAnswer	not applicable	not applicable	not applicable	not applicable	not applicable	not applicable	not applicable	not applicable	not applicable	not applicable	not applicable	not applicable	not applicable	not applicable
100.048	5.951	2	05_K4_combined_small.mp4	displayCuriosity	4	105.141380883011	not applicable	not applicable	not applicable	not applicable	not applicable	not applicable	not applicable	not applicable	not applicable	not applicable	not applicable	not applicable
105.999	8	2	05_K4_combined_small.mp4	fixationPostCuriosity	not applicable	not applicable	not applicable	not applicable	not applicable	not applicable	not applicable	not applicable	not applicable	not applicable	not applicable	not applicable	not applicable	not applicable
115.998	6.034	3	33_S21_combined_small.mp4	displayMockVid	not applicable	not applicable	not applicable	not applicable	not applicable	not applicable	not applicable	not applicable	not applicable	not applicable	not applicable	not applicable	not applicable	not applicable
122.033	21.816	3	33_S21_combined_small.mp4	displayVid	not applicable	not applicable	shows a normal spoon then pulls apart ('breaks') it into two pieces without any effort. 	remembered	remembered	The magician detaches the head of a spoon by moving the handle up and down.	6	remembered	remembered	remembered	remembered	remembered	remembered	remembered
143.997	4.002	3	33_S21_combined_small.mp4	fixationPostVid	not applicable	not applicable	not applicable	not applicable	not applicable	not applicable	not applicable	not applicable	not applicable	not applicable	not applicable	not applicable	not applicable	not applicable
147.999	6	3	33_S21_combined_small.mp4	displayAnswer	31 or more	148.543703543008	not applicable	not applicable	not applicable	not applicable	not applicable	not applicable	not applicable	not applicable	not applicable	not applicable	not applicable	not applicable
153.999	0.049	3	33_S21_combined_small.mp4	fixationPostAnswer	not applicable	not applicable	not applicable	not applicable	not applicable	not applicable	not applicable	not applicable	not applicable	not applicable	not applicable	not applicable	not applicable	not applicable
154.048	5.951	3	33_S21_combined_small.mp4	displayCuriosity	6	155.733333034004	not applicable	not applicable	not applicable	not applicable	not applicable	not applicable	not applicable	not applicable	not applicable	not applicable	not applicable	not applicable
159.999	10	3	33_S21_combined_small.mp4	fixationPostCuriosity	not applicable	not applicable	not applicable	not applicable	not applicable	not applicable	not applicable	not applicable	not applicable	not applicable	not applicable	not applicable	not applicable	not applicable
171.998	6.036	4	13_Trick6_short_combined_small.mp4	displayMockVid	not applicable	not applicable	not applicable	not applicable	not applicable	not applicable	not applicable	not applicable	not applicable	not applicable	not applicable	not applicable	not applicable	not applicable
178.034	37.666	4	13_Trick6_short_combined_small.mp4	displayVid	not applicable	not applicable	no recall	forgotten	forgotten	The magician puts a ball under the cup, which then turns into a larger ball and then becomes an egg.	6	remembered	remembered	remembered	remembered	remembered	remembered	remembered
216.001	4	4	13_Trick6_short_combined_small.mp4	fixationPostVid	not applicable	not applicable	not applicable	not applicable	not applicable	not applicable	not applicable	not applicable	not applicable	not applicable	not applicable	not applicable	not applicable	not applicable
220.001	5.997	4	13_Trick6_short_combined_small.mp4	displayAnswer	31 or more	220.661091443006	not applicable	not applicable	not applicable	not applicable	not applicable	not applicable	not applicable	not applicable	not applicable	not applicable	not applicable	not applicable
225.998	0.048	4	13_Trick6_short_combined_small.mp4	fixationPostAnswer	not applicable	not applicable	not applicable	not applicable	not applicable	not applicable	not applicable	not applicable	not applicable	not applicable	not applicable	not applicable	not applicable	not applicable
226.047	5.947	4	13_Trick6_short_combined_small.mp4	displayCuriosity	7	228.81776459	not applicable	not applicable	not applicable	not applicable	not applicable	not applicable	not applicable	not applicable	not applicable	not applicable	not applicable	not applicable
231.993	4.004	4	13_Trick6_short_combined_small.mp4	fixationPostCuriosity	not applicable	not applicable	not applicable	not applicable	not applicable	not applicable	not applicable	not applicable	not applicable	not applicable	not applicable	not applicable	not applicable	not applicable
237.998	6.036	5	01_H35_combined_small.mp4	displayMockVid	not applicable	not applicable	not applicable	not applicable	not applicable	not applicable	not applicable	not applicable	not applicable	not applicable	not applicable	not applicable	not applicable	not applicable
244.033	37.645	5	01_H35_combined_small.mp4	displayVid	not applicable	not applicable	no recall	forgotten	forgotten	The volunteer signs a card that is placed into the Ziploc bag, but then appears in the card box.	3	forgotten	forgotten	forgotten	forgotten	forgotten	forgotten	forgotten
281.996	4.004	5	01_H35_combined_small.mp4	fixationPostVid	not applicable	not applicable	not applicable	not applicable	not applicable	not applicable	not applicable	not applicable	not applicable	not applicable	not applicable	not applicable	not applicable	not applicable
286.001	5.997	5	01_H35_combined_small.mp4	displayAnswer	21 to 30	287.322692274	not applicable	not applicable	not applicable	not applicable	not applicable	not applicable	not applicable	not applicable	not applicable	not applicable	not applicable	not applicable
291.997	0.049	5	01_H35_combined_small.mp4	fixationPostAnswer	not applicable	not applicable	not applicable	not applicable	not applicable	not applicable	not applicable	not applicable	not applicable	not applicable	not applicable	not applicable	not applicable	not applicable
292.046	5.95	5	01_H35_combined_small.mp4	displayCuriosity	5	295.196908846003	not applicable	not applicable	not applicable	not applicable	not applicable	not applicable	not applicable	not applicable	not applicable	not applicable	not applicable	not applicable
297.996	3.998	5	01_H35_combined_small.mp4	fixationPostCuriosity	not applicable	not applicable	not applicable	not applicable	not applicable	not applicable	not applicable	not applicable	not applicable	not applicable	not applicable	not applicable	not applicable	not applicable
303.995	6.038	6	07_K2_combined_small.mp4	displayMockVid	not applicable	not applicable	not applicable	not applicable	not applicable	not applicable	not applicable	not applicable	not applicable	not applicable	not applicable	not applicable	not applicable	not applicable
310.033	27.217	6	07_K2_combined_small.mp4	displayVid	not applicable	not applicable	candy is shown in the book. (few pages are shown). book is closed shaken and candies similar to those shown in the book fall out on the table. book is opened again and the pages are blank (ie candy has disappeared)	remembered	remembered	The sweets shown on the pages disappear.	6	forgotten	forgotten	forgotten	remembered	remembered	remembered	remembered
338	3.996	6	07_K2_combined_small.mp4	fixationPostVid	not applicable	not applicable	not applicable	not applicable	not applicable	not applicable	not applicable	not applicable	not applicable	not applicable	not applicable	not applicable	not applicable	not applicable
341.996	5.999	6	07_K2_combined_small.mp4	displayAnswer	31 or more	342.594724367009	not applicable	not applicable	not applicable	not applicable	not applicable	not applicable	not applicable	not applicable	not applicable	not applicable	not applicable	not applicable
347.995	0.048	6	07_K2_combined_small.mp4	fixationPostAnswer	not applicable	not applicable	not applicable	not applicable	not applicable	not applicable	not applicable	not applicable	not applicable	not applicable	not applicable	not applicable	not applicable	not applicable
348.043	5.953	6	07_K2_combined_small.mp4	displayCuriosity	6	350.911716212009	not applicable	not applicable	not applicable	not applicable	not applicable	not applicable	not applicable	not applicable	not applicable	not applicable	not applicable	not applicable
353.996	4	6	07_K2_combined_small.mp4	fixationPostCuriosity	not applicable	not applicable	not applicable	not applicable	not applicable	not applicable	not applicable	not applicable	not applicable	not applicable	not applicable	not applicable	not applicable	not applicable
359.996	6.031	7	18_Trick4_combined_small.mp4	displayMockVid	not applicable	not applicable	not applicable	not applicable	not applicable	not applicable	not applicable	not applicable	not applicable	not applicable	not applicable	not applicable	not applicable	not applicable
366.027	47.816	7	18_Trick4_combined_small.mp4	displayVid	not applicable	not applicable	no recall	forgotten	forgotten	The magician puts the mobile phone inside the balloon with a simple gesture of his hands.	6	remembered	remembered	remembered	remembered	remembered	remembered	remembered
413.992	4.003	7	18_Trick4_combined_small.mp4	fixationPostVid	not applicable	not applicable	not applicable	not applicable	not applicable	not applicable	not applicable	not applicable	not applicable	not applicable	not applicable	not applicable	not applicable	not applicable
417.995	6.001	7	18_Trick4_combined_small.mp4	displayAnswer	11 to 20	418.560237784011	not applicable	not applicable	not applicable	not applicable	not applicable	not applicable	not applicable	not applicable	not applicable	not applicable	not applicable	not applicable
423.996	0.049	7	18_Trick4_combined_small.mp4	fixationPostAnswer	not applicable	not applicable	not applicable	not applicable	not applicable	not applicable	not applicable	not applicable	not applicable	not applicable	not applicable	not applicable	not applicable	not applicable
424.045	5.951	7	18_Trick4_combined_small.mp4	displayCuriosity	6	426.968681733008	not applicable	not applicable	not applicable	not applicable	not applicable	not applicable	not applicable	not applicable	not applicable	not applicable	not applicable	not applicable
429.996	4	7	18_Trick4_combined_small.mp4	fixationPostCuriosity	not applicable	not applicable	not applicable	not applicable	not applicable	not applicable	not applicable	not applicable	not applicable	not applicable	not applicable	not applicable	not applicable	not applicable
435.994	6.003	8	30_H15_combined_small.mp4	displayMockVid	not applicable	not applicable	not applicable	not applicable	not applicable	not applicable	not applicable	not applicable	not applicable	not applicable	not applicable	not applicable	not applicable	not applicable
441.997	31.919	8	30_H15_combined_small.mp4	displayVid	not applicable	not applicable	toothpick is placed on the short side of the deck of cards balances. then someone else tries to place the toothpick in the same position and it drops to the table	remembered	remembered	The magician balances a toothpick on a deck of cards.	6	remembered	remembered	remembered	remembered	remembered	remembered	remembered
473.996	5.998	8	30_H15_combined_small.mp4	fixationPostVid	not applicable	not applicable	not applicable	not applicable	not applicable	not applicable	not applicable	not applicable	not applicable	not applicable	not applicable	not applicable	not applicable	not applicable
479.994	6	8	30_H15_combined_small.mp4	displayAnswer	11 to 20	481.633946873	not applicable	not applicable	not applicable	not applicable	not applicable	not applicable	not applicable	not applicable	not applicable	not applicable	not applicable	not applicable
485.994	0.048	8	30_H15_combined_small.mp4	fixationPostAnswer	not applicable	not applicable	not applicable	not applicable	not applicable	not applicable	not applicable	not applicable	not applicable	not applicable	not applicable	not applicable	not applicable	not applicable
486.043	5.952	8	30_H15_combined_small.mp4	displayCuriosity	5	487.964441062009	not applicable	not applicable	not applicable	not applicable	not applicable	not applicable	not applicable	not applicable	not applicable	not applicable	not applicable	not applicable
491.994	4	8	30_H15_combined_small.mp4	fixationPostCuriosity	not applicable	not applicable	not applicable	not applicable	not applicable	not applicable	not applicable	not applicable	not applicable	not applicable	not applicable	not applicable	not applicable	not applicable
497.994	6.035	9	22_K18_combined_small.mp4	displayMockVid	not applicable	not applicable	not applicable	not applicable	not applicable	not applicable	not applicable	not applicable	not applicable	not applicable	not applicable	not applicable	not applicable	not applicable
504.029	22.209	9	22_K18_combined_small.mp4	displayVid	not applicable	not applicable	no recall	forgotten	forgotten	A pack of cards appears from a single piece of paper.	5	remembered	remembered	remembered	remembered	remembered	remembered	remembered
527.996	3.998	9	22_K18_combined_small.mp4	fixationPostVid	not applicable	not applicable	not applicable	not applicable	not applicable	not applicable	not applicable	not applicable	not applicable	not applicable	not applicable	not applicable	not applicable	not applicable
531.994	6	9	22_K18_combined_small.mp4	displayAnswer	31 or more	533.316732673004	not applicable	not applicable	not applicable	not applicable	not applicable	not applicable	not applicable	not applicable	not applicable	not applicable	not applicable	not applicable
537.993	0.05	9	22_K18_combined_small.mp4	fixationPostAnswer	not applicable	not applicable	not applicable	not applicable	not applicable	not applicable	not applicable	not applicable	not applicable	not applicable	not applicable	not applicable	not applicable	not applicable
538.043	5.951	9	22_K18_combined_small.mp4	displayCuriosity	1	540.889176344004	not applicable	not applicable	not applicable	not applicable	not applicable	not applicable	not applicable	not applicable	not applicable	not applicable	not applicable	not applicable
543.994	4	9	22_K18_combined_small.mp4	fixationPostCuriosity	not applicable	not applicable	not applicable	not applicable	not applicable	not applicable	not applicable	not applicable	not applicable	not applicable	not applicable	not applicable	not applicable	not applicable
549.994	6.002	10	21_S15_combined_small.mp4	displayMockVid	not applicable	not applicable	not applicable	not applicable	not applicable	not applicable	not applicable	not applicable	not applicable	not applicable	not applicable	not applicable	not applicable	not applicable
555.995	32.015	10	21_S15_combined_small.mp4	displayVid	not applicable	not applicable	ring is tapped against the stem of the glass and without breaking is suddenly wrapped around it still intact. and then ring is removed intact without breaking the glass	remembered	remembered	The magician places a ring on the stem of the glass without breaking it.	6	remembered	remembered	remembered	remembered	remembered	remembered	remembered
589.992	5.997	10	21_S15_combined_small.mp4	fixationPostVid	not applicable	not applicable	not applicable	not applicable	not applicable	not applicable	not applicable	not applicable	not applicable	not applicable	not applicable	not applicable	not applicable	not applicable
595.99	6.004	10	21_S15_combined_small.mp4	displayAnswer	21 to 30	598.288904973	not applicable	not applicable	not applicable	not applicable	not applicable	not applicable	not applicable	not applicable	not applicable	not applicable	not applicable	not applicable
601.994	0.048	10	21_S15_combined_small.mp4	fixationPostAnswer	not applicable	not applicable	not applicable	not applicable	not applicable	not applicable	not applicable	not applicable	not applicable	not applicable	not applicable	not applicable	not applicable	not applicable
602.042	5.952	10	21_S15_combined_small.mp4	displayCuriosity	6	604.942031657003	not applicable	not applicable	not applicable	not applicable	not applicable	not applicable	not applicable	not applicable	not applicable	not applicable	not applicable	not applicable
607.993	6.001	10	21_S15_combined_small.mp4	fixationPostCuriosity	not applicable	not applicable	not applicable	not applicable	not applicable	not applicable	not applicable	not applicable	not applicable	not applicable	not applicable	not applicable	not applicable	not applicable
615.992	6.035	11	29_H36_combined_small.mp4	displayMockVid	not applicable	not applicable	not applicable	not applicable	not applicable	not applicable	not applicable	not applicable	not applicable	not applicable	not applicable	not applicable	not applicable	not applicable
622.027	36.409	11	29_H36_combined_small.mp4	displayVid	not applicable	not applicable	the nut it screwed on the thing on the right but can't remember the trick	forgotten	forgotten	The magician places the nut in the middle of the bold and it magically screws itself.	5	forgotten	forgotten	forgotten	forgotten	forgotten	forgotten	forgotten
659.995	3.997	11	29_H36_combined_small.mp4	fixationPostVid	not applicable	not applicable	not applicable	not applicable	not applicable	not applicable	not applicable	not applicable	not applicable	not applicable	not applicable	not applicable	not applicable	not applicable
663.992	6.001	11	29_H36_combined_small.mp4	displayAnswer	21 to 30	664.752033362005	not applicable	not applicable	not applicable	not applicable	not applicable	not applicable	not applicable	not applicable	not applicable	not applicable	not applicable	not applicable
669.993	0.049	11	29_H36_combined_small.mp4	fixationPostAnswer	not applicable	not applicable	not applicable	not applicable	not applicable	not applicable	not applicable	not applicable	not applicable	not applicable	not applicable	not applicable	not applicable	not applicable
670.042	5.95	11	29_H36_combined_small.mp4	displayCuriosity	1	672.354945419007	not applicable	not applicable	not applicable	not applicable	not applicable	not applicable	not applicable	not applicable	not applicable	not applicable	not applicable	not applicable
675.992	10	11	29_H36_combined_small.mp4	fixationPostCuriosity	not applicable	not applicable	not applicable	not applicable	not applicable	not applicable	not applicable	not applicable	not applicable	not applicable	not applicable	not applicable	not applicable	not applicable
687.988	6.04	12	11_K21_long_combined_small.mp4	displayMockVid	not applicable	not applicable	not applicable	not applicable	not applicable	not applicable	not applicable	not applicable	not applicable	not applicable	not applicable	not applicable	not applicable	not applicable
694.028	43.782	12	11_K21_long_combined_small.mp4	displayVid	not applicable	not applicable	there were multiple card tricks I think so difficult to say. no recall. 	forgotten	forgotten	The magician places a card between two other cards and makes it disappear.	4	forgotten	forgotten	forgotten	forgotten	forgotten	forgotten	forgotten
737.991	4	12	11_K21_long_combined_small.mp4	fixationPostVid	not applicable	not applicable	not applicable	not applicable	not applicable	not applicable	not applicable	not applicable	not applicable	not applicable	not applicable	not applicable	not applicable	not applicable
741.991	6	12	11_K21_long_combined_small.mp4	displayAnswer	21 to 30	742.768488718997	not applicable	not applicable	not applicable	not applicable	not applicable	not applicable	not applicable	not applicable	not applicable	not applicable	not applicable	not applicable
747.991	0.049	12	11_K21_long_combined_small.mp4	fixationPostAnswer	not applicable	not applicable	not applicable	not applicable	not applicable	not applicable	not applicable	not applicable	not applicable	not applicable	not applicable	not applicable	not applicable	not applicable
748.04	5.946	12	11_K21_long_combined_small.mp4	displayCuriosity	4	750.619473013008	not applicable	not applicable	not applicable	not applicable	not applicable	not applicable	not applicable	not applicable	not applicable	not applicable	not applicable	not applicable
753.986	4.003	12	11_K21_long_combined_small.mp4	fixationPostCuriosity	not applicable	not applicable	not applicable	not applicable	not applicable	not applicable	not applicable	not applicable	not applicable	not applicable	not applicable	not applicable	not applicable	not applicable
