onset	duration	trial	stim_file	event	response	response_timestamp	response_recall	trial_type_cuedRecallStrict	trial_type_cuedRecallLenient	response_recognition	response_confidence	trial_type_allConf	trial_type_highConf	trial_type_aboveAvgConf	trial_type_rememberedStrictAboveAvg	trial_type_rememberedLenientAboveAvg	trial_type_rememberedStrictHigh	trial_type_rememberedLenientHigh
2	6.031	25	30_H15_combined_small.mp4	displayMockVid	not applicable	not applicable	not applicable	not applicable	not applicable	not applicable	not applicable	not applicable	not applicable	not applicable	not applicable	not applicable	not applicable	not applicable
8.031	31.903	25	30_H15_combined_small.mp4	displayVid	not applicable	not applicable	He balanced the stick on top of the cards	remembered	remembered	The magician balances a toothpick on a deck of cards.	6	remembered	remembered	remembered	remembered	remembered	remembered	remembered
40	4	25	30_H15_combined_small.mp4	fixationPostVid	not applicable	not applicable	not applicable	not applicable	not applicable	not applicable	not applicable	not applicable	not applicable	not applicable	not applicable	not applicable	not applicable	not applicable
44	6	25	30_H15_combined_small.mp4	displayAnswer	31 or more	44.9255827640009	not applicable	not applicable	not applicable	not applicable	not applicable	not applicable	not applicable	not applicable	not applicable	not applicable	not applicable	not applicable
50	0.048	25	30_H15_combined_small.mp4	fixationPostAnswer	not applicable	not applicable	not applicable	not applicable	not applicable	not applicable	not applicable	not applicable	not applicable	not applicable	not applicable	not applicable	not applicable	not applicable
50.048	5.948	25	30_H15_combined_small.mp4	displayCuriosity	3	52.8209480150035	not applicable	not applicable	not applicable	not applicable	not applicable	not applicable	not applicable	not applicable	not applicable	not applicable	not applicable	not applicable
55.996	8.002	25	30_H15_combined_small.mp4	fixationPostCuriosity	not applicable	not applicable	not applicable	not applicable	not applicable	not applicable	not applicable	not applicable	not applicable	not applicable	not applicable	not applicable	not applicable	not applicable
65.998	6.035	26	27_S31_combined_small.mp4	displayMockVid	not applicable	not applicable	not applicable	not applicable	not applicable	not applicable	not applicable	not applicable	not applicable	not applicable	not applicable	not applicable	not applicable	not applicable
72.033	21.015	26	27_S31_combined_small.mp4	displayVid	not applicable	not applicable	no recall	forgotten	forgotten	The magician places chopsticks into an envelope, but is still able to crush the envelope and its contents into a paper ball.	4	remembered	remembered	forgotten	forgotten	forgotten	remembered	remembered
93.991	4.004	26	27_S31_combined_small.mp4	fixationPostVid	not applicable	not applicable	not applicable	not applicable	not applicable	not applicable	not applicable	not applicable	not applicable	not applicable	not applicable	not applicable	not applicable	not applicable
97.995	6.002	26	27_S31_combined_small.mp4	displayAnswer	11 to 20	98.5283779230012	not applicable	not applicable	not applicable	not applicable	not applicable	not applicable	not applicable	not applicable	not applicable	not applicable	not applicable	not applicable
103.998	0.049	26	27_S31_combined_small.mp4	fixationPostAnswer	not applicable	not applicable	not applicable	not applicable	not applicable	not applicable	not applicable	not applicable	not applicable	not applicable	not applicable	not applicable	not applicable	not applicable
104.047	5.95	26	27_S31_combined_small.mp4	displayCuriosity	4	109.686378780003	not applicable	not applicable	not applicable	not applicable	not applicable	not applicable	not applicable	not applicable	not applicable	not applicable	not applicable	not applicable
109.998	4	26	27_S31_combined_small.mp4	fixationPostCuriosity	not applicable	not applicable	not applicable	not applicable	not applicable	not applicable	not applicable	not applicable	not applicable	not applicable	not applicable	not applicable	not applicable	not applicable
115.999	6.034	27	05_K4_combined_small.mp4	displayMockVid	not applicable	not applicable	not applicable	not applicable	not applicable	not applicable	not applicable	not applicable	not applicable	not applicable	not applicable	not applicable	not applicable	not applicable
122.033	31.166	27	05_K4_combined_small.mp4	displayVid	not applicable	not applicable	he solved the rubik's cube	remembered	remembered	The magician solves the rubix cube by spinning it in the air.	6	remembered	remembered	remembered	remembered	remembered	remembered	remembered
153.997	4	27	05_K4_combined_small.mp4	fixationPostVid	not applicable	not applicable	not applicable	not applicable	not applicable	not applicable	not applicable	not applicable	not applicable	not applicable	not applicable	not applicable	not applicable	not applicable
157.997	6.001	27	05_K4_combined_small.mp4	displayAnswer	0 to 10	158.906593439999	not applicable	not applicable	not applicable	not applicable	not applicable	not applicable	not applicable	not applicable	not applicable	not applicable	not applicable	not applicable
163.999	0.048	27	05_K4_combined_small.mp4	fixationPostAnswer	not applicable	not applicable	not applicable	not applicable	not applicable	not applicable	not applicable	not applicable	not applicable	not applicable	not applicable	not applicable	not applicable	not applicable
164.047	5.948	27	05_K4_combined_small.mp4	displayCuriosity	6	167.306999259003	not applicable	not applicable	not applicable	not applicable	not applicable	not applicable	not applicable	not applicable	not applicable	not applicable	not applicable	not applicable
169.995	4.002	27	05_K4_combined_small.mp4	fixationPostCuriosity	not applicable	not applicable	not applicable	not applicable	not applicable	not applicable	not applicable	not applicable	not applicable	not applicable	not applicable	not applicable	not applicable	not applicable
175.996	6.036	28	11_K21_long_combined_small.mp4	displayMockVid	not applicable	not applicable	not applicable	not applicable	not applicable	not applicable	not applicable	not applicable	not applicable	not applicable	not applicable	not applicable	not applicable	not applicable
182.032	43.77	28	11_K21_long_combined_small.mp4	displayVid	not applicable	not applicable	no recall	forgotten	forgotten	The magician places a card between two other cards and makes it disappear.	6	forgotten	forgotten	forgotten	forgotten	forgotten	forgotten	forgotten
225.997	3.999	28	11_K21_long_combined_small.mp4	fixationPostVid	not applicable	not applicable	not applicable	not applicable	not applicable	not applicable	not applicable	not applicable	not applicable	not applicable	not applicable	not applicable	not applicable	not applicable
229.996	5.997	28	11_K21_long_combined_small.mp4	displayAnswer	11 to 20	233.455693354001	not applicable	not applicable	not applicable	not applicable	not applicable	not applicable	not applicable	not applicable	not applicable	not applicable	not applicable	not applicable
235.993	0.049	28	11_K21_long_combined_small.mp4	fixationPostAnswer	not applicable	not applicable	not applicable	not applicable	not applicable	not applicable	not applicable	not applicable	not applicable	not applicable	not applicable	not applicable	not applicable	not applicable
236.042	5.953	28	11_K21_long_combined_small.mp4	displayCuriosity	6	237.370027520003	not applicable	not applicable	not applicable	not applicable	not applicable	not applicable	not applicable	not applicable	not applicable	not applicable	not applicable	not applicable
241.996	4	28	11_K21_long_combined_small.mp4	fixationPostCuriosity	not applicable	not applicable	not applicable	not applicable	not applicable	not applicable	not applicable	not applicable	not applicable	not applicable	not applicable	not applicable	not applicable	not applicable
247.998	6.026	29	36_Trick7_short_combined_small.mp4	displayMockVid	not applicable	not applicable	not applicable	not applicable	not applicable	not applicable	not applicable	not applicable	not applicable	not applicable	not applicable	not applicable	not applicable	not applicable
254.024	20.623	29	36_Trick7_short_combined_small.mp4	displayVid	not applicable	not applicable	he moved the balls from one hand to another	remembered	remembered	The magician gets the volunteer to hold a foam ball, which he then transforms into  two balls.	2	remembered	forgotten	forgotten	remembered	remembered	remembered	remembered
275.998	5.994	29	36_Trick7_short_combined_small.mp4	fixationPostVid	not applicable	not applicable	not applicable	not applicable	not applicable	not applicable	not applicable	not applicable	not applicable	not applicable	not applicable	not applicable	not applicable	not applicable
281.993	6.003	29	36_Trick7_short_combined_small.mp4	displayAnswer	31 or more	282.625874518002	not applicable	not applicable	not applicable	not applicable	not applicable	not applicable	not applicable	not applicable	not applicable	not applicable	not applicable	not applicable
287.996	0.049	29	36_Trick7_short_combined_small.mp4	fixationPostAnswer	not applicable	not applicable	not applicable	not applicable	not applicable	not applicable	not applicable	not applicable	not applicable	not applicable	not applicable	not applicable	not applicable	not applicable
288.045	5.949	29	36_Trick7_short_combined_small.mp4	displayCuriosity	1	289.568820553002	not applicable	not applicable	not applicable	not applicable	not applicable	not applicable	not applicable	not applicable	not applicable	not applicable	not applicable	not applicable
293.994	4.001	29	36_Trick7_short_combined_small.mp4	fixationPostCuriosity	not applicable	not applicable	not applicable	not applicable	not applicable	not applicable	not applicable	not applicable	not applicable	not applicable	not applicable	not applicable	not applicable	not applicable
299.988	6.041	30	07_K2_combined_small.mp4	displayMockVid	not applicable	not applicable	not applicable	not applicable	not applicable	not applicable	not applicable	not applicable	not applicable	not applicable	not applicable	not applicable	not applicable	not applicable
306.029	27.217	30	07_K2_combined_small.mp4	displayVid	not applicable	not applicable	Sweets fell out of the book and then the pages were empty	remembered	remembered	The sweets shown on the pages disappear.	6	forgotten	forgotten	forgotten	remembered	remembered	remembered	remembered
333.995	4.001	30	07_K2_combined_small.mp4	fixationPostVid	not applicable	not applicable	not applicable	not applicable	not applicable	not applicable	not applicable	not applicable	not applicable	not applicable	not applicable	not applicable	not applicable	not applicable
337.996	5.999	30	07_K2_combined_small.mp4	displayAnswer	21 to 30	338.615293162999	not applicable	not applicable	not applicable	not applicable	not applicable	not applicable	not applicable	not applicable	not applicable	not applicable	not applicable	not applicable
343.995	0.05	30	07_K2_combined_small.mp4	fixationPostAnswer	not applicable	not applicable	not applicable	not applicable	not applicable	not applicable	not applicable	not applicable	not applicable	not applicable	not applicable	not applicable	not applicable	not applicable
344.045	5.947	30	07_K2_combined_small.mp4	displayCuriosity	6	344.764387019	not applicable	not applicable	not applicable	not applicable	not applicable	not applicable	not applicable	not applicable	not applicable	not applicable	not applicable	not applicable
349.992	4.002	30	07_K2_combined_small.mp4	fixationPostCuriosity	not applicable	not applicable	not applicable	not applicable	not applicable	not applicable	not applicable	not applicable	not applicable	not applicable	not applicable	not applicable	not applicable	not applicable
355.994	6.036	31	29_H36_combined_small.mp4	displayMockVid	not applicable	not applicable	not applicable	not applicable	not applicable	not applicable	not applicable	not applicable	not applicable	not applicable	not applicable	not applicable	not applicable	not applicable
362.03	36.415	31	29_H36_combined_small.mp4	displayVid	not applicable	not applicable	no recall	forgotten	forgotten	The nut is placed on the middle of the bold by the volunteer and magically unscrews itself.	4	remembered	remembered	forgotten	forgotten	forgotten	remembered	remembered
399.994	4.001	31	29_H36_combined_small.mp4	fixationPostVid	not applicable	not applicable	not applicable	not applicable	not applicable	not applicable	not applicable	not applicable	not applicable	not applicable	not applicable	not applicable	not applicable	not applicable
403.995	5.998	31	29_H36_combined_small.mp4	displayAnswer	11 to 20	404.454276119999	not applicable	not applicable	not applicable	not applicable	not applicable	not applicable	not applicable	not applicable	not applicable	not applicable	not applicable	not applicable
409.994	0.049	31	29_H36_combined_small.mp4	fixationPostAnswer	not applicable	not applicable	not applicable	not applicable	not applicable	not applicable	not applicable	not applicable	not applicable	not applicable	not applicable	not applicable	not applicable	not applicable
410.043	5.947	31	29_H36_combined_small.mp4	displayCuriosity	2	413.921018601999	not applicable	not applicable	not applicable	not applicable	not applicable	not applicable	not applicable	not applicable	not applicable	not applicable	not applicable	not applicable
415.99	8.004	31	29_H36_combined_small.mp4	fixationPostCuriosity	not applicable	not applicable	not applicable	not applicable	not applicable	not applicable	not applicable	not applicable	not applicable	not applicable	not applicable	not applicable	not applicable	not applicable
425.994	6.036	32	25_S25_combined_small.mp4	displayMockVid	not applicable	not applicable	not applicable	not applicable	not applicable	not applicable	not applicable	not applicable	not applicable	not applicable	not applicable	not applicable	not applicable	not applicable
432.029	52.648	32	25_S25_combined_small.mp4	displayVid	not applicable	not applicable	no recall	forgotten	forgotten	The magician makes a signed coin appear inside a bread roll.	2	forgotten	forgotten	forgotten	forgotten	forgotten	forgotten	forgotten
485.99	4.002	32	25_S25_combined_small.mp4	fixationPostVid	not applicable	not applicable	not applicable	not applicable	not applicable	not applicable	not applicable	not applicable	not applicable	not applicable	not applicable	not applicable	not applicable	not applicable
489.992	6	32	25_S25_combined_small.mp4	displayAnswer	31 or more	490.672348658001	not applicable	not applicable	not applicable	not applicable	not applicable	not applicable	not applicable	not applicable	not applicable	not applicable	not applicable	not applicable
495.992	0.05	32	25_S25_combined_small.mp4	fixationPostAnswer	not applicable	not applicable	not applicable	not applicable	not applicable	not applicable	not applicable	not applicable	not applicable	not applicable	not applicable	not applicable	not applicable	not applicable
496.042	5.95	32	25_S25_combined_small.mp4	displayCuriosity	5	497.122842926001	not applicable	not applicable	not applicable	not applicable	not applicable	not applicable	not applicable	not applicable	not applicable	not applicable	not applicable	not applicable
501.992	3.995	32	25_S25_combined_small.mp4	fixationPostCuriosity	not applicable	not applicable	not applicable	not applicable	not applicable	not applicable	not applicable	not applicable	not applicable	not applicable	not applicable	not applicable	not applicable	not applicable
507.989	6.04	33	02_H10_combined_small.mp4	displayMockVid	not applicable	not applicable	not applicable	not applicable	not applicable	not applicable	not applicable	not applicable	not applicable	not applicable	not applicable	not applicable	not applicable	not applicable
514.029	30.847	33	02_H10_combined_small.mp4	displayVid	not applicable	not applicable	he fixed the broken card	remembered	remembered	The magician magically repairs split card.	6	remembered	remembered	remembered	remembered	remembered	remembered	remembered
545.992	4	33	02_H10_combined_small.mp4	fixationPostVid	not applicable	not applicable	not applicable	not applicable	not applicable	not applicable	not applicable	not applicable	not applicable	not applicable	not applicable	not applicable	not applicable	not applicable
549.992	6	33	02_H10_combined_small.mp4	displayAnswer	21 to 30	552.304651922001	not applicable	not applicable	not applicable	not applicable	not applicable	not applicable	not applicable	not applicable	not applicable	not applicable	not applicable	not applicable
555.992	0.048	33	02_H10_combined_small.mp4	fixationPostAnswer	not applicable	not applicable	not applicable	not applicable	not applicable	not applicable	not applicable	not applicable	not applicable	not applicable	not applicable	not applicable	not applicable	not applicable
556.04	5.951	33	02_H10_combined_small.mp4	displayCuriosity	1	560.476305097	not applicable	not applicable	not applicable	not applicable	not applicable	not applicable	not applicable	not applicable	not applicable	not applicable	not applicable	not applicable
561.991	4.002	33	02_H10_combined_small.mp4	fixationPostCuriosity	not applicable	not applicable	not applicable	not applicable	not applicable	not applicable	not applicable	not applicable	not applicable	not applicable	not applicable	not applicable	not applicable	not applicable
567.991	6.036	34	18_Trick4_combined_small.mp4	displayMockVid	not applicable	not applicable	not applicable	not applicable	not applicable	not applicable	not applicable	not applicable	not applicable	not applicable	not applicable	not applicable	not applicable	not applicable
574.027	47.815	34	18_Trick4_combined_small.mp4	displayVid	not applicable	not applicable	The magician put something into the balloon	remembered	remembered	The magician puts the mobile phone inside the balloon with a simple gesture of his hands.	6	remembered	remembered	remembered	remembered	remembered	remembered	remembered
621.988	4.002	34	18_Trick4_combined_small.mp4	fixationPostVid	not applicable	not applicable	not applicable	not applicable	not applicable	not applicable	not applicable	not applicable	not applicable	not applicable	not applicable	not applicable	not applicable	not applicable
625.991	6	34	18_Trick4_combined_small.mp4	displayAnswer	0 to 10	626.433023621001	not applicable	not applicable	not applicable	not applicable	not applicable	not applicable	not applicable	not applicable	not applicable	not applicable	not applicable	not applicable
631.991	0.049	34	18_Trick4_combined_small.mp4	fixationPostAnswer	not applicable	not applicable	not applicable	not applicable	not applicable	not applicable	not applicable	not applicable	not applicable	not applicable	not applicable	not applicable	not applicable	not applicable
632.04	5.951	34	18_Trick4_combined_small.mp4	displayCuriosity	7	634.052111823003	not applicable	not applicable	not applicable	not applicable	not applicable	not applicable	not applicable	not applicable	not applicable	not applicable	not applicable	not applicable
637.991	10	34	18_Trick4_combined_small.mp4	fixationPostCuriosity	not applicable	not applicable	not applicable	not applicable	not applicable	not applicable	not applicable	not applicable	not applicable	not applicable	not applicable	not applicable	not applicable	not applicable
649.99	6.003	35	32_K16_short_combined_small.mp4	displayMockVid	not applicable	not applicable	not applicable	not applicable	not applicable	not applicable	not applicable	not applicable	not applicable	not applicable	not applicable	not applicable	not applicable	not applicable
655.993	31.448	35	32_K16_short_combined_small.mp4	displayVid	not applicable	not applicable	no recall	forgotten	forgotten	The magician asks the volunteer to mark the cards using the pen. After he shuffles them, the volunteer's writing has disappeared from all of the cards.	2	forgotten	forgotten	forgotten	forgotten	forgotten	forgotten	forgotten
687.991	3.999	35	32_K16_short_combined_small.mp4	fixationPostVid	not applicable	not applicable	not applicable	not applicable	not applicable	not applicable	not applicable	not applicable	not applicable	not applicable	not applicable	not applicable	not applicable	not applicable
691.99	6	35	32_K16_short_combined_small.mp4	displayAnswer	11 to 20	692.756208748004	not applicable	not applicable	not applicable	not applicable	not applicable	not applicable	not applicable	not applicable	not applicable	not applicable	not applicable	not applicable
697.99	0.049	35	32_K16_short_combined_small.mp4	fixationPostAnswer	not applicable	not applicable	not applicable	not applicable	not applicable	not applicable	not applicable	not applicable	not applicable	not applicable	not applicable	not applicable	not applicable	not applicable
698.04	5.95	35	32_K16_short_combined_small.mp4	displayCuriosity	4	700.336947626005	not applicable	not applicable	not applicable	not applicable	not applicable	not applicable	not applicable	not applicable	not applicable	not applicable	not applicable	not applicable
703.989	4.001	35	32_K16_short_combined_small.mp4	fixationPostCuriosity	not applicable	not applicable	not applicable	not applicable	not applicable	not applicable	not applicable	not applicable	not applicable	not applicable	not applicable	not applicable	not applicable	not applicable
709.984	6.041	36	03_H16_combined_small.mp4	displayMockVid	not applicable	not applicable	not applicable	not applicable	not applicable	not applicable	not applicable	not applicable	not applicable	not applicable	not applicable	not applicable	not applicable	not applicable
716.025	33.606	36	03_H16_combined_small.mp4	displayVid	not applicable	not applicable	he poured coke from the empty can	remembered	remembered	The magician pours coke into a glass from an empty can.	6	remembered	remembered	remembered	remembered	remembered	remembered	remembered
749.989	10	36	03_H16_combined_small.mp4	fixationPostVid	not applicable	not applicable	not applicable	not applicable	not applicable	not applicable	not applicable	not applicable	not applicable	not applicable	not applicable	not applicable	not applicable	not applicable
759.989	6.001	36	03_H16_combined_small.mp4	displayAnswer	31 or more	760.435247895002	not applicable	not applicable	not applicable	not applicable	not applicable	not applicable	not applicable	not applicable	not applicable	not applicable	not applicable	not applicable
765.99	0.049	36	03_H16_combined_small.mp4	fixationPostAnswer	not applicable	not applicable	not applicable	not applicable	not applicable	not applicable	not applicable	not applicable	not applicable	not applicable	not applicable	not applicable	not applicable	not applicable
766.039	5.95	36	03_H16_combined_small.mp4	displayCuriosity	3	766.929191698	not applicable	not applicable	not applicable	not applicable	not applicable	not applicable	not applicable	not applicable	not applicable	not applicable	not applicable	not applicable
771.989	4	36	03_H16_combined_small.mp4	fixationPostCuriosity	not applicable	not applicable	not applicable	not applicable	not applicable	not applicable	not applicable	not applicable	not applicable	not applicable	not applicable	not applicable	not applicable	not applicable
