onset	duration	trial	stim_file	event	response	response_timestamp	response_recall	trial_type_cuedRecallStrict	trial_type_cuedRecallLenient	response_recognition	response_confidence	trial_type_allConf	trial_type_highConf	trial_type_aboveAvgConf	trial_type_rememberedStrictAboveAvg	trial_type_rememberedLenientAboveAvg	trial_type_rememberedStrictHigh	trial_type_rememberedLenientHigh
2.003	6.036	25	14_K19_long_combined_small.mp4	displayMockVid	not applicable	not applicable	not applicable	not applicable	not applicable	not applicable	not applicable	not applicable	not applicable	not applicable	not applicable	not applicable	not applicable	not applicable
8.038	31.813	25	14_K19_long_combined_small.mp4	displayVid	not applicable	not applicable	no recall	forgotten	forgotten	The balls magically change their location and become a toy rabbit.	2	remembered	forgotten	forgotten	forgotten	forgotten	forgotten	forgotten
39.996	4.004	25	14_K19_long_combined_small.mp4	fixationPostVid	not applicable	not applicable	not applicable	not applicable	not applicable	not applicable	not applicable	not applicable	not applicable	not applicable	not applicable	not applicable	not applicable	not applicable
44	6.002	25	14_K19_long_combined_small.mp4	displayAnswer	0 to 10	47.3155164039999	not applicable	not applicable	not applicable	not applicable	not applicable	not applicable	not applicable	not applicable	not applicable	not applicable	not applicable	not applicable
50.002	0.05	25	14_K19_long_combined_small.mp4	fixationPostAnswer	not applicable	not applicable	not applicable	not applicable	not applicable	not applicable	not applicable	not applicable	not applicable	not applicable	not applicable	not applicable	not applicable	not applicable
50.052	5.951	25	14_K19_long_combined_small.mp4	displayCuriosity	7	52.4330838349997	not applicable	not applicable	not applicable	not applicable	not applicable	not applicable	not applicable	not applicable	not applicable	not applicable	not applicable	not applicable
56.003	8	25	14_K19_long_combined_small.mp4	fixationPostCuriosity	not applicable	not applicable	not applicable	not applicable	not applicable	not applicable	not applicable	not applicable	not applicable	not applicable	not applicable	not applicable	not applicable	not applicable
65.999	6.006	26	28_K24_combined_small.mp4	displayMockVid	not applicable	not applicable	not applicable	not applicable	not applicable	not applicable	not applicable	not applicable	not applicable	not applicable	not applicable	not applicable	not applicable	not applicable
72.005	24.25	26	28_K24_combined_small.mp4	displayVid	not applicable	not applicable	It went from being a £10 note to a £20note	remembered	remembered	A £10 note is transformed into a £20  note.	6	remembered	remembered	remembered	remembered	remembered	remembered	remembered
97.988	3.997	26	28_K24_combined_small.mp4	fixationPostVid	not applicable	not applicable	not applicable	not applicable	not applicable	not applicable	not applicable	not applicable	not applicable	not applicable	not applicable	not applicable	not applicable	not applicable
101.985	6	26	28_K24_combined_small.mp4	displayAnswer	0 to 10	102.947433572001	not applicable	not applicable	not applicable	not applicable	not applicable	not applicable	not applicable	not applicable	not applicable	not applicable	not applicable	not applicable
107.985	0.051	26	28_K24_combined_small.mp4	fixationPostAnswer	not applicable	not applicable	not applicable	not applicable	not applicable	not applicable	not applicable	not applicable	not applicable	not applicable	not applicable	not applicable	not applicable	not applicable
108.036	5.947	26	28_K24_combined_small.mp4	displayCuriosity	7	110.376455964	not applicable	not applicable	not applicable	not applicable	not applicable	not applicable	not applicable	not applicable	not applicable	not applicable	not applicable	not applicable
113.983	4.002	26	28_K24_combined_small.mp4	fixationPostCuriosity	not applicable	not applicable	not applicable	not applicable	not applicable	not applicable	not applicable	not applicable	not applicable	not applicable	not applicable	not applicable	not applicable	not applicable
120.003	6.034	27	24_Trick28_combined_small.mp4	displayMockVid	not applicable	not applicable	not applicable	not applicable	not applicable	not applicable	not applicable	not applicable	not applicable	not applicable	not applicable	not applicable	not applicable	not applicable
126.038	40.462	27	24_Trick28_combined_small.mp4	displayVid	not applicable	not applicable	no recall	forgotten	forgotten	The magician links and unlinks several silver rings while they keep their shape.	5	remembered	remembered	remembered	remembered	remembered	remembered	remembered
167.989	4.003	27	24_Trick28_combined_small.mp4	fixationPostVid	not applicable	not applicable	not applicable	not applicable	not applicable	not applicable	not applicable	not applicable	not applicable	not applicable	not applicable	not applicable	not applicable	not applicable
171.992	6.004	27	24_Trick28_combined_small.mp4	displayAnswer	21 to 30	173.120516275001	not applicable	not applicable	not applicable	not applicable	not applicable	not applicable	not applicable	not applicable	not applicable	not applicable	not applicable	not applicable
177.996	0.05	27	24_Trick28_combined_small.mp4	fixationPostAnswer	not applicable	not applicable	not applicable	not applicable	not applicable	not applicable	not applicable	not applicable	not applicable	not applicable	not applicable	not applicable	not applicable	not applicable
178.046	5.954	27	24_Trick28_combined_small.mp4	displayCuriosity	6	180.540114374999	not applicable	not applicable	not applicable	not applicable	not applicable	not applicable	not applicable	not applicable	not applicable	not applicable	not applicable	not applicable
184	4.001	27	24_Trick28_combined_small.mp4	fixationPostCuriosity	not applicable	not applicable	not applicable	not applicable	not applicable	not applicable	not applicable	not applicable	not applicable	not applicable	not applicable	not applicable	not applicable	not applicable
189.986	6.041	28	21_S15_combined_small.mp4	displayMockVid	not applicable	not applicable	not applicable	not applicable	not applicable	not applicable	not applicable	not applicable	not applicable	not applicable	not applicable	not applicable	not applicable	not applicable
196.028	31.979	28	21_S15_combined_small.mp4	displayVid	not applicable	not applicable	no recall	forgotten	forgotten	The magician places the glass upside down on the ring and covers it with a piece of silk. When he removes it, the ring is placed on the stem.	4	forgotten	forgotten	forgotten	forgotten	forgotten	forgotten	forgotten
230	4.001	28	21_S15_combined_small.mp4	fixationPostVid	not applicable	not applicable	not applicable	not applicable	not applicable	not applicable	not applicable	not applicable	not applicable	not applicable	not applicable	not applicable	not applicable	not applicable
234.001	6	28	21_S15_combined_small.mp4	displayAnswer	0 to 10	234.691993531	not applicable	not applicable	not applicable	not applicable	not applicable	not applicable	not applicable	not applicable	not applicable	not applicable	not applicable	not applicable
240	0.05	28	21_S15_combined_small.mp4	fixationPostAnswer	not applicable	not applicable	not applicable	not applicable	not applicable	not applicable	not applicable	not applicable	not applicable	not applicable	not applicable	not applicable	not applicable	not applicable
240.05	5.944	28	21_S15_combined_small.mp4	displayCuriosity	6	243.645934366999	not applicable	not applicable	not applicable	not applicable	not applicable	not applicable	not applicable	not applicable	not applicable	not applicable	not applicable	not applicable
245.994	4.004	28	21_S15_combined_small.mp4	fixationPostCuriosity	not applicable	not applicable	not applicable	not applicable	not applicable	not applicable	not applicable	not applicable	not applicable	not applicable	not applicable	not applicable	not applicable	not applicable
252	6.035	29	11_K21_long_combined_small.mp4	displayMockVid	not applicable	not applicable	not applicable	not applicable	not applicable	not applicable	not applicable	not applicable	not applicable	not applicable	not applicable	not applicable	not applicable	not applicable
258.035	43.784	29	11_K21_long_combined_small.mp4	displayVid	not applicable	not applicable	no recall	forgotten	forgotten	The magician places a card between two other cards and makes it disappear.	1	forgotten	forgotten	forgotten	forgotten	forgotten	forgotten	forgotten
302	6	29	11_K21_long_combined_small.mp4	fixationPostVid	not applicable	not applicable	not applicable	not applicable	not applicable	not applicable	not applicable	not applicable	not applicable	not applicable	not applicable	not applicable	not applicable	not applicable
308	5.999	29	11_K21_long_combined_small.mp4	displayAnswer	0 to 10	309.570011378	not applicable	not applicable	not applicable	not applicable	not applicable	not applicable	not applicable	not applicable	not applicable	not applicable	not applicable	not applicable
313.999	0.051	29	11_K21_long_combined_small.mp4	fixationPostAnswer	not applicable	not applicable	not applicable	not applicable	not applicable	not applicable	not applicable	not applicable	not applicable	not applicable	not applicable	not applicable	not applicable	not applicable
314.05	5.948	29	11_K21_long_combined_small.mp4	displayCuriosity	4	317.932418105	not applicable	not applicable	not applicable	not applicable	not applicable	not applicable	not applicable	not applicable	not applicable	not applicable	not applicable	not applicable
319.998	4.001	29	11_K21_long_combined_small.mp4	fixationPostCuriosity	not applicable	not applicable	not applicable	not applicable	not applicable	not applicable	not applicable	not applicable	not applicable	not applicable	not applicable	not applicable	not applicable	not applicable
325.984	6.008	30	34_Trick38_combined_small.mp4	displayMockVid	not applicable	not applicable	not applicable	not applicable	not applicable	not applicable	not applicable	not applicable	not applicable	not applicable	not applicable	not applicable	not applicable	not applicable
331.992	27.456	30	34_Trick38_combined_small.mp4	displayVid	not applicable	not applicable	no recall	forgotten	forgotten	The magician closes one fist around a silk handkerchief and makes it disappear. Then, he makes it appear in his other hand.	1	remembered	forgotten	forgotten	forgotten	forgotten	forgotten	forgotten
359.994	4.002	30	34_Trick38_combined_small.mp4	fixationPostVid	not applicable	not applicable	not applicable	not applicable	not applicable	not applicable	not applicable	not applicable	not applicable	not applicable	not applicable	not applicable	not applicable	not applicable
363.996	6.003	30	34_Trick38_combined_small.mp4	displayAnswer	0 to 10	366.189073079	not applicable	not applicable	not applicable	not applicable	not applicable	not applicable	not applicable	not applicable	not applicable	not applicable	not applicable	not applicable
369.999	0.05	30	34_Trick38_combined_small.mp4	fixationPostAnswer	not applicable	not applicable	not applicable	not applicable	not applicable	not applicable	not applicable	not applicable	not applicable	not applicable	not applicable	not applicable	not applicable	not applicable
370.049	5.949	30	34_Trick38_combined_small.mp4	displayCuriosity	5	373.037063153999	not applicable	not applicable	not applicable	not applicable	not applicable	not applicable	not applicable	not applicable	not applicable	not applicable	not applicable	not applicable
375.998	4.001	30	34_Trick38_combined_small.mp4	fixationPostCuriosity	not applicable	not applicable	not applicable	not applicable	not applicable	not applicable	not applicable	not applicable	not applicable	not applicable	not applicable	not applicable	not applicable	not applicable
381.992	6.008	31	22_K18_combined_small.mp4	displayMockVid	not applicable	not applicable	not applicable	not applicable	not applicable	not applicable	not applicable	not applicable	not applicable	not applicable	not applicable	not applicable	not applicable	not applicable
388	22.247	31	22_K18_combined_small.mp4	displayVid	not applicable	not applicable	no recall	forgotten	forgotten	The magician folds the sheet of paper smaller and smaller until it transforms into a pack of cards.	4	forgotten	forgotten	forgotten	forgotten	forgotten	forgotten	forgotten
411.998	4.001	31	22_K18_combined_small.mp4	fixationPostVid	not applicable	not applicable	not applicable	not applicable	not applicable	not applicable	not applicable	not applicable	not applicable	not applicable	not applicable	not applicable	not applicable	not applicable
415.999	5.999	31	22_K18_combined_small.mp4	displayAnswer	0 to 10	417.683187349998	not applicable	not applicable	not applicable	not applicable	not applicable	not applicable	not applicable	not applicable	not applicable	not applicable	not applicable	not applicable
421.998	0.05	31	22_K18_combined_small.mp4	fixationPostAnswer	not applicable	not applicable	not applicable	not applicable	not applicable	not applicable	not applicable	not applicable	not applicable	not applicable	not applicable	not applicable	not applicable	not applicable
422.048	5.95	31	22_K18_combined_small.mp4	displayCuriosity	6	424.197378167999	not applicable	not applicable	not applicable	not applicable	not applicable	not applicable	not applicable	not applicable	not applicable	not applicable	not applicable	not applicable
427.998	8	31	22_K18_combined_small.mp4	fixationPostCuriosity	not applicable	not applicable	not applicable	not applicable	not applicable	not applicable	not applicable	not applicable	not applicable	not applicable	not applicable	not applicable	not applicable	not applicable
437.999	6.034	32	08_S12_combined_small.mp4	displayMockVid	not applicable	not applicable	not applicable	not applicable	not applicable	not applicable	not applicable	not applicable	not applicable	not applicable	not applicable	not applicable	not applicable	not applicable
444.033	41.897	32	08_S12_combined_small.mp4	displayVid	not applicable	not applicable	he punched a hold in the card but later on the same card was as good as new with no hole	remembered	remembered	The magician punches a hole in the card. He then moves the hole from one corner to another before finally revealing that it is actually a black spot on the card.	4	remembered	remembered	remembered	remembered	remembered	remembered	remembered
485.984	3.997	32	08_S12_combined_small.mp4	fixationPostVid	not applicable	not applicable	not applicable	not applicable	not applicable	not applicable	not applicable	not applicable	not applicable	not applicable	not applicable	not applicable	not applicable	not applicable
489.981	6	32	08_S12_combined_small.mp4	displayAnswer	11 to 20	490.450670331	not applicable	not applicable	not applicable	not applicable	not applicable	not applicable	not applicable	not applicable	not applicable	not applicable	not applicable	not applicable
495.981	0.049	32	08_S12_combined_small.mp4	fixationPostAnswer	not applicable	not applicable	not applicable	not applicable	not applicable	not applicable	not applicable	not applicable	not applicable	not applicable	not applicable	not applicable	not applicable	not applicable
496.03	5.949	32	08_S12_combined_small.mp4	displayCuriosity	6	499.239663318	not applicable	not applicable	not applicable	not applicable	not applicable	not applicable	not applicable	not applicable	not applicable	not applicable	not applicable	not applicable
501.979	4.001	32	08_S12_combined_small.mp4	fixationPostCuriosity	not applicable	not applicable	not applicable	not applicable	not applicable	not applicable	not applicable	not applicable	not applicable	not applicable	not applicable	not applicable	not applicable	not applicable
507.997	6.025	33	04_S9_combined_small.mp4	displayMockVid	not applicable	not applicable	not applicable	not applicable	not applicable	not applicable	not applicable	not applicable	not applicable	not applicable	not applicable	not applicable	not applicable	not applicable
514.022	32.457	33	04_S9_combined_small.mp4	displayVid	not applicable	not applicable	no recall	forgotten	forgotten	The magician shows a card and then pulls the correct card from a shuffled deck.	2	forgotten	forgotten	forgotten	forgotten	forgotten	forgotten	forgotten
547.996	4.001	33	04_S9_combined_small.mp4	fixationPostVid	not applicable	not applicable	not applicable	not applicable	not applicable	not applicable	not applicable	not applicable	not applicable	not applicable	not applicable	not applicable	not applicable	not applicable
551.997	5.999	33	04_S9_combined_small.mp4	displayAnswer	0 to 10	553.983963262999	not applicable	not applicable	not applicable	not applicable	not applicable	not applicable	not applicable	not applicable	not applicable	not applicable	not applicable	not applicable
557.996	0.051	33	04_S9_combined_small.mp4	fixationPostAnswer	not applicable	not applicable	not applicable	not applicable	not applicable	not applicable	not applicable	not applicable	not applicable	not applicable	not applicable	not applicable	not applicable	not applicable
558.047	5.949	33	04_S9_combined_small.mp4	displayCuriosity	6	559.621184814998	not applicable	not applicable	not applicable	not applicable	not applicable	not applicable	not applicable	not applicable	not applicable	not applicable	not applicable	not applicable
563.996	3.998	33	04_S9_combined_small.mp4	fixationPostCuriosity	not applicable	not applicable	not applicable	not applicable	not applicable	not applicable	not applicable	not applicable	not applicable	not applicable	not applicable	not applicable	not applicable	not applicable
569.996	6.002	34	15_S18_combined_small.mp4	displayMockVid	not applicable	not applicable	not applicable	not applicable	not applicable	not applicable	not applicable	not applicable	not applicable	not applicable	not applicable	not applicable	not applicable	not applicable
575.998	31.967	34	15_S18_combined_small.mp4	displayVid	not applicable	not applicable	no recall	forgotten	forgotten	The magician pulls three boxes containing flowers from a paper bag.	1	remembered	forgotten	forgotten	forgotten	forgotten	forgotten	forgotten
607.989	4.003	34	15_S18_combined_small.mp4	fixationPostVid	not applicable	not applicable	not applicable	not applicable	not applicable	not applicable	not applicable	not applicable	not applicable	not applicable	not applicable	not applicable	not applicable	not applicable
611.992	6.004	34	15_S18_combined_small.mp4	displayAnswer	0 to 10	612.538326872	not applicable	not applicable	not applicable	not applicable	not applicable	not applicable	not applicable	not applicable	not applicable	not applicable	not applicable	not applicable
617.996	0.049	34	15_S18_combined_small.mp4	fixationPostAnswer	not applicable	not applicable	not applicable	not applicable	not applicable	not applicable	not applicable	not applicable	not applicable	not applicable	not applicable	not applicable	not applicable	not applicable
618.045	5.95	34	15_S18_combined_small.mp4	displayCuriosity	3	621.282728057999	not applicable	not applicable	not applicable	not applicable	not applicable	not applicable	not applicable	not applicable	not applicable	not applicable	not applicable	not applicable
623.995	9.996	34	15_S18_combined_small.mp4	fixationPostCuriosity	not applicable	not applicable	not applicable	not applicable	not applicable	not applicable	not applicable	not applicable	not applicable	not applicable	not applicable	not applicable	not applicable	not applicable
635.992	6.005	35	19_H17_combined_small.mp4	displayMockVid	not applicable	not applicable	not applicable	not applicable	not applicable	not applicable	not applicable	not applicable	not applicable	not applicable	not applicable	not applicable	not applicable	not applicable
641.997	46.65	35	19_H17_combined_small.mp4	displayVid	not applicable	not applicable	no recall	forgotten	forgotten	The magician uses a guillotine to slice breadsticks, but not the volunteer's finger.	6	remembered	remembered	remembered	remembered	remembered	remembered	remembered
689.982	3.996	35	19_H17_combined_small.mp4	fixationPostVid	not applicable	not applicable	not applicable	not applicable	not applicable	not applicable	not applicable	not applicable	not applicable	not applicable	not applicable	not applicable	not applicable	not applicable
693.978	6	35	19_H17_combined_small.mp4	displayAnswer	0 to 10	694.749659577999	not applicable	not applicable	not applicable	not applicable	not applicable	not applicable	not applicable	not applicable	not applicable	not applicable	not applicable	not applicable
699.978	0.044	35	19_H17_combined_small.mp4	fixationPostAnswer	not applicable	not applicable	not applicable	not applicable	not applicable	not applicable	not applicable	not applicable	not applicable	not applicable	not applicable	not applicable	not applicable	not applicable
700.023	5.954	35	19_H17_combined_small.mp4	displayCuriosity	7	702.384052353998	not applicable	not applicable	not applicable	not applicable	not applicable	not applicable	not applicable	not applicable	not applicable	not applicable	not applicable	not applicable
705.976	4.001	35	19_H17_combined_small.mp4	fixationPostCuriosity	not applicable	not applicable	not applicable	not applicable	not applicable	not applicable	not applicable	not applicable	not applicable	not applicable	not applicable	not applicable	not applicable	not applicable
711.994	6.035	36	01_H35_combined_small.mp4	displayMockVid	not applicable	not applicable	not applicable	not applicable	not applicable	not applicable	not applicable	not applicable	not applicable	not applicable	not applicable	not applicable	not applicable	not applicable
718.029	37.668	36	01_H35_combined_small.mp4	displayVid	not applicable	not applicable	no recall	forgotten	forgotten	The volunteer signs a card that is placed into the Ziploc bag, but then appears in the card box.	1	forgotten	forgotten	forgotten	forgotten	forgotten	forgotten	forgotten
755.994	10	36	01_H35_combined_small.mp4	fixationPostVid	not applicable	not applicable	not applicable	not applicable	not applicable	not applicable	not applicable	not applicable	not applicable	not applicable	not applicable	not applicable	not applicable	not applicable
765.994	5.996	36	01_H35_combined_small.mp4	displayAnswer	0 to 10	766.949017962001	not applicable	not applicable	not applicable	not applicable	not applicable	not applicable	not applicable	not applicable	not applicable	not applicable	not applicable	not applicable
771.99	0.05	36	01_H35_combined_small.mp4	fixationPostAnswer	not applicable	not applicable	not applicable	not applicable	not applicable	not applicable	not applicable	not applicable	not applicable	not applicable	not applicable	not applicable	not applicable	not applicable
772.04	5.953	36	01_H35_combined_small.mp4	displayCuriosity	6	774.713335299999	not applicable	not applicable	not applicable	not applicable	not applicable	not applicable	not applicable	not applicable	not applicable	not applicable	not applicable	not applicable
777.993	4.001	36	01_H35_combined_small.mp4	fixationPostCuriosity	not applicable	not applicable	not applicable	not applicable	not applicable	not applicable	not applicable	not applicable	not applicable	not applicable	not applicable	not applicable	not applicable	not applicable
