onset	duration	trial	stim_file	event	response	response_timestamp	response_recall	trial_type_cuedRecallStrict	trial_type_cuedRecallLenient	response_recognition	response_confidence	trial_type_allConf	trial_type_highConf	trial_type_aboveAvgConf	trial_type_rememberedStrictAboveAvg	trial_type_rememberedLenientAboveAvg	trial_type_rememberedStrictHigh	trial_type_rememberedLenientHigh
2.001	6.026	13	21_S15_combined_small.mp4	displayMockVid	not applicable	not applicable	not applicable	not applicable	not applicable	not applicable	not applicable	not applicable	not applicable	not applicable	not applicable	not applicable	not applicable	not applicable
8.027	31.991	13	21_S15_combined_small.mp4	displayVid	not applicable	not applicable	no recall 	forgotten	forgotten	The magician puts the ring into the glass and starts tossing it around until the ring is around the stem.	2	forgotten	forgotten	forgotten	forgotten	forgotten	forgotten	forgotten
41.997	6.006	13	21_S15_combined_small.mp4	fixationPostVid	not applicable	not applicable	not applicable	not applicable	not applicable	not applicable	not applicable	not applicable	not applicable	not applicable	not applicable	not applicable	not applicable	not applicable
48.003	6.002	13	21_S15_combined_small.mp4	displayAnswer	21 to 30	49.6307611659868	not applicable	not applicable	not applicable	not applicable	not applicable	not applicable	not applicable	not applicable	not applicable	not applicable	not applicable	not applicable
54.005	0.05	13	21_S15_combined_small.mp4	fixationPostAnswer	not applicable	not applicable	not applicable	not applicable	not applicable	not applicable	not applicable	not applicable	not applicable	not applicable	not applicable	not applicable	not applicable	not applicable
54.055	5.953	13	21_S15_combined_small.mp4	displayCuriosity	3	56.7870462179999	not applicable	not applicable	not applicable	not applicable	not applicable	not applicable	not applicable	not applicable	not applicable	not applicable	not applicable	not applicable
60.008	4	13	21_S15_combined_small.mp4	fixationPostCuriosity	not applicable	not applicable	not applicable	not applicable	not applicable	not applicable	not applicable	not applicable	not applicable	not applicable	not applicable	not applicable	not applicable	not applicable
65.997	6.027	14	25_S25_combined_small.mp4	displayMockVid	not applicable	not applicable	not applicable	not applicable	not applicable	not applicable	not applicable	not applicable	not applicable	not applicable	not applicable	not applicable	not applicable	not applicable
72.024	52.666	14	25_S25_combined_small.mp4	displayVid	not applicable	not applicable	one of the buns disappeared then reappeared somewhere	forgotten	forgotten	The magician holds a bread roll in his left hand, which then appears in his right hand.	2	forgotten	forgotten	forgotten	forgotten	forgotten	forgotten	forgotten
126.007	4	14	25_S25_combined_small.mp4	fixationPostVid	not applicable	not applicable	not applicable	not applicable	not applicable	not applicable	not applicable	not applicable	not applicable	not applicable	not applicable	not applicable	not applicable	not applicable
130.007	6	14	25_S25_combined_small.mp4	displayAnswer	31 or more	132.490330133005	not applicable	not applicable	not applicable	not applicable	not applicable	not applicable	not applicable	not applicable	not applicable	not applicable	not applicable	not applicable
136.007	0.049	14	25_S25_combined_small.mp4	fixationPostAnswer	not applicable	not applicable	not applicable	not applicable	not applicable	not applicable	not applicable	not applicable	not applicable	not applicable	not applicable	not applicable	not applicable	not applicable
136.056	5.946	14	25_S25_combined_small.mp4	displayCuriosity	3	139.726476943993	not applicable	not applicable	not applicable	not applicable	not applicable	not applicable	not applicable	not applicable	not applicable	not applicable	not applicable	not applicable
142.002	4.003	14	25_S25_combined_small.mp4	fixationPostCuriosity	not applicable	not applicable	not applicable	not applicable	not applicable	not applicable	not applicable	not applicable	not applicable	not applicable	not applicable	not applicable	not applicable	not applicable
148.007	6.023	15	08_S12_combined_small.mp4	displayMockVid	not applicable	not applicable	not applicable	not applicable	not applicable	not applicable	not applicable	not applicable	not applicable	not applicable	not applicable	not applicable	not applicable	not applicable
154.03	41.908	15	08_S12_combined_small.mp4	displayVid	not applicable	not applicable	a hole was punched into the top left of the card the magician then put his index above the whole and his thumb below it pressed and moved the whole to a different corner and then somehow covered the hole tha was punched. 	remembered	remembered	The magician punches a hole in the card. He then moves the hole from one corner to another before finally revealing that it is actually a black spot on the card.	6	remembered	remembered	remembered	remembered	remembered	remembered	remembered
196.007	9.998	15	08_S12_combined_small.mp4	fixationPostVid	not applicable	not applicable	not applicable	not applicable	not applicable	not applicable	not applicable	not applicable	not applicable	not applicable	not applicable	not applicable	not applicable	not applicable
206.006	5.997	15	08_S12_combined_small.mp4	displayAnswer	21 to 30	206.908774946991	not applicable	not applicable	not applicable	not applicable	not applicable	not applicable	not applicable	not applicable	not applicable	not applicable	not applicable	not applicable
212.003	0.049	15	08_S12_combined_small.mp4	fixationPostAnswer	not applicable	not applicable	not applicable	not applicable	not applicable	not applicable	not applicable	not applicable	not applicable	not applicable	not applicable	not applicable	not applicable	not applicable
212.052	5.954	15	08_S12_combined_small.mp4	displayCuriosity	6	214.310980751005	not applicable	not applicable	not applicable	not applicable	not applicable	not applicable	not applicable	not applicable	not applicable	not applicable	not applicable	not applicable
218.006	3.999	15	08_S12_combined_small.mp4	fixationPostCuriosity	not applicable	not applicable	not applicable	not applicable	not applicable	not applicable	not applicable	not applicable	not applicable	not applicable	not applicable	not applicable	not applicable	not applicable
223.995	6.029	16	15_S18_combined_small.mp4	displayMockVid	not applicable	not applicable	not applicable	not applicable	not applicable	not applicable	not applicable	not applicable	not applicable	not applicable	not applicable	not applicable	not applicable	not applicable
230.024	31.951	16	15_S18_combined_small.mp4	displayVid	not applicable	not applicable	the magician pulled a bottle from the bag then put it back in waved his hands and then turned the bag upside down and nothing fell out. then the magician scrunched up the bag demonstrating that the bottle in the bag supposedly vanished. 	forgotten	forgotten	The magician pulls three boxes containing flowers from a paper bag.	1	remembered	forgotten	forgotten	forgotten	forgotten	forgotten	forgotten
262.008	3.998	16	15_S18_combined_small.mp4	fixationPostVid	not applicable	not applicable	not applicable	not applicable	not applicable	not applicable	not applicable	not applicable	not applicable	not applicable	not applicable	not applicable	not applicable	not applicable
266.006	5.999	16	15_S18_combined_small.mp4	displayAnswer	11 to 20	266.601115715981	not applicable	not applicable	not applicable	not applicable	not applicable	not applicable	not applicable	not applicable	not applicable	not applicable	not applicable	not applicable
272.004	0.051	16	15_S18_combined_small.mp4	fixationPostAnswer	not applicable	not applicable	not applicable	not applicable	not applicable	not applicable	not applicable	not applicable	not applicable	not applicable	not applicable	not applicable	not applicable	not applicable
272.055	5.949	16	15_S18_combined_small.mp4	displayCuriosity	4	275.289522873994	not applicable	not applicable	not applicable	not applicable	not applicable	not applicable	not applicable	not applicable	not applicable	not applicable	not applicable	not applicable
278.004	3.999	16	15_S18_combined_small.mp4	fixationPostCuriosity	not applicable	not applicable	not applicable	not applicable	not applicable	not applicable	not applicable	not applicable	not applicable	not applicable	not applicable	not applicable	not applicable	not applicable
284.005	6.035	17	07_K2_combined_small.mp4	displayMockVid	not applicable	not applicable	not applicable	not applicable	not applicable	not applicable	not applicable	not applicable	not applicable	not applicable	not applicable	not applicable	not applicable	not applicable
290.04	27.219	17	07_K2_combined_small.mp4	displayVid	not applicable	not applicable	the magician showed us the book along with every page within the book. Each image contained an illustration of a Disney animal character. then the magician closed the booked waved their hands and oppened it again to find that the colours of the pages changed and there were no more illustrations of animals on the pages. 	remembered	remembered	The sweets shown on the pages disappear.	3	forgotten	forgotten	forgotten	remembered	remembered	remembered	remembered
317.997	4.002	17	07_K2_combined_small.mp4	fixationPostVid	not applicable	not applicable	not applicable	not applicable	not applicable	not applicable	not applicable	not applicable	not applicable	not applicable	not applicable	not applicable	not applicable	not applicable
321.999	6.003	17	07_K2_combined_small.mp4	displayAnswer	11 to 20	323.230937629007	not applicable	not applicable	not applicable	not applicable	not applicable	not applicable	not applicable	not applicable	not applicable	not applicable	not applicable	not applicable
328.002	0.05	17	07_K2_combined_small.mp4	fixationPostAnswer	not applicable	not applicable	not applicable	not applicable	not applicable	not applicable	not applicable	not applicable	not applicable	not applicable	not applicable	not applicable	not applicable	not applicable
328.052	5.951	17	07_K2_combined_small.mp4	displayCuriosity	3	330.365195908002	not applicable	not applicable	not applicable	not applicable	not applicable	not applicable	not applicable	not applicable	not applicable	not applicable	not applicable	not applicable
334.004	4.001	17	07_K2_combined_small.mp4	fixationPostCuriosity	not applicable	not applicable	not applicable	not applicable	not applicable	not applicable	not applicable	not applicable	not applicable	not applicable	not applicable	not applicable	not applicable	not applicable
339.994	6.028	18	14_K19_long_combined_small.mp4	displayMockVid	not applicable	not applicable	not applicable	not applicable	not applicable	not applicable	not applicable	not applicable	not applicable	not applicable	not applicable	not applicable	not applicable	not applicable
346.022	31.818	18	14_K19_long_combined_small.mp4	displayVid	not applicable	not applicable	no recall	forgotten	forgotten	The print on the mug changes from a black Q10 to a red B2.	1	forgotten	forgotten	forgotten	forgotten	forgotten	forgotten	forgotten
378.005	4	18	14_K19_long_combined_small.mp4	fixationPostVid	not applicable	not applicable	not applicable	not applicable	not applicable	not applicable	not applicable	not applicable	not applicable	not applicable	not applicable	not applicable	not applicable	not applicable
382.006	5.998	18	14_K19_long_combined_small.mp4	displayAnswer	11 to 20	382.774334449001	not applicable	not applicable	not applicable	not applicable	not applicable	not applicable	not applicable	not applicable	not applicable	not applicable	not applicable	not applicable
388.003	0.049	18	14_K19_long_combined_small.mp4	fixationPostAnswer	not applicable	not applicable	not applicable	not applicable	not applicable	not applicable	not applicable	not applicable	not applicable	not applicable	not applicable	not applicable	not applicable	not applicable
388.053	5.948	18	14_K19_long_combined_small.mp4	displayCuriosity	6	392.588051444996	not applicable	not applicable	not applicable	not applicable	not applicable	not applicable	not applicable	not applicable	not applicable	not applicable	not applicable	not applicable
394.001	4.002	18	14_K19_long_combined_small.mp4	fixationPostCuriosity	not applicable	not applicable	not applicable	not applicable	not applicable	not applicable	not applicable	not applicable	not applicable	not applicable	not applicable	not applicable	not applicable	not applicable
400.003	6.024	19	31_K3_combined_small.mp4	displayMockVid	not applicable	not applicable	not applicable	not applicable	not applicable	not applicable	not applicable	not applicable	not applicable	not applicable	not applicable	not applicable	not applicable	not applicable
406.027	25.903	19	31_K3_combined_small.mp4	displayVid	not applicable	not applicable	the lleaf disappeared then reappeared	forgotten	forgotten	The magician makes ladybirds appear and then disappear again.	6	remembered	remembered	remembered	remembered	remembered	remembered	remembered
431.997	8.004	19	31_K3_combined_small.mp4	fixationPostVid	not applicable	not applicable	not applicable	not applicable	not applicable	not applicable	not applicable	not applicable	not applicable	not applicable	not applicable	not applicable	not applicable	not applicable
440.001	6.002	19	31_K3_combined_small.mp4	displayAnswer	21 to 30	441.209521448996	not applicable	not applicable	not applicable	not applicable	not applicable	not applicable	not applicable	not applicable	not applicable	not applicable	not applicable	not applicable
446.003	0.049	19	31_K3_combined_small.mp4	fixationPostAnswer	not applicable	not applicable	not applicable	not applicable	not applicable	not applicable	not applicable	not applicable	not applicable	not applicable	not applicable	not applicable	not applicable	not applicable
446.052	5.95	19	31_K3_combined_small.mp4	displayCuriosity	5	448.073063939984	not applicable	not applicable	not applicable	not applicable	not applicable	not applicable	not applicable	not applicable	not applicable	not applicable	not applicable	not applicable
452.002	4.001	19	31_K3_combined_small.mp4	fixationPostCuriosity	not applicable	not applicable	not applicable	not applicable	not applicable	not applicable	not applicable	not applicable	not applicable	not applicable	not applicable	not applicable	not applicable	not applicable
457.997	6.024	20	36_Trick7_short_combined_small.mp4	displayMockVid	not applicable	not applicable	not applicable	not applicable	not applicable	not applicable	not applicable	not applicable	not applicable	not applicable	not applicable	not applicable	not applicable	not applicable
464.021	20.631	20	36_Trick7_short_combined_small.mp4	displayVid	not applicable	not applicable	the range balls were closed into the participant's hands. the hands were squeezed cosed tightly by the magician then they opened and the balls were a different colour (red) and a different size. 	forgotten	forgotten	The magician gets the volunteer to hold a foam ball, which he then transforms into  two balls.	3	remembered	forgotten	forgotten	forgotten	forgotten	forgotten	forgotten
486.001	4.001	20	36_Trick7_short_combined_small.mp4	fixationPostVid	not applicable	not applicable	not applicable	not applicable	not applicable	not applicable	not applicable	not applicable	not applicable	not applicable	not applicable	not applicable	not applicable	not applicable
490.002	6	20	36_Trick7_short_combined_small.mp4	displayAnswer	11 to 20	492.327534468001	not applicable	not applicable	not applicable	not applicable	not applicable	not applicable	not applicable	not applicable	not applicable	not applicable	not applicable	not applicable
496.002	0.049	20	36_Trick7_short_combined_small.mp4	fixationPostAnswer	not applicable	not applicable	not applicable	not applicable	not applicable	not applicable	not applicable	not applicable	not applicable	not applicable	not applicable	not applicable	not applicable	not applicable
496.052	5.95	20	36_Trick7_short_combined_small.mp4	displayCuriosity	6	500.030310774979	not applicable	not applicable	not applicable	not applicable	not applicable	not applicable	not applicable	not applicable	not applicable	not applicable	not applicable	not applicable
502.002	3.998	20	36_Trick7_short_combined_small.mp4	fixationPostCuriosity	not applicable	not applicable	not applicable	not applicable	not applicable	not applicable	not applicable	not applicable	not applicable	not applicable	not applicable	not applicable	not applicable	not applicable
508	6.005	21	04_S9_combined_small.mp4	displayMockVid	not applicable	not applicable	not applicable	not applicable	not applicable	not applicable	not applicable	not applicable	not applicable	not applicable	not applicable	not applicable	not applicable	not applicable
514.005	32.482	21	04_S9_combined_small.mp4	displayVid	not applicable	not applicable	the deck of cards initialy had symbols (ie a queen or a jack on it) but then through shuffling and relaying the cards out the magician dispayed a deck of cards thay were plain white but still had the blue cover. 	remembered	remembered	The magician covers the cards with a silk handkerchief. After the silk is removed, the cards are blank.	5	forgotten	forgotten	forgotten	remembered	remembered	remembered	remembered
547.996	4.002	21	04_S9_combined_small.mp4	fixationPostVid	not applicable	not applicable	not applicable	not applicable	not applicable	not applicable	not applicable	not applicable	not applicable	not applicable	not applicable	not applicable	not applicable	not applicable
551.998	6.004	21	04_S9_combined_small.mp4	displayAnswer	11 to 20	552.637285642995	not applicable	not applicable	not applicable	not applicable	not applicable	not applicable	not applicable	not applicable	not applicable	not applicable	not applicable	not applicable
558.002	0.049	21	04_S9_combined_small.mp4	fixationPostAnswer	not applicable	not applicable	not applicable	not applicable	not applicable	not applicable	not applicable	not applicable	not applicable	not applicable	not applicable	not applicable	not applicable	not applicable
558.051	5.951	21	04_S9_combined_small.mp4	displayCuriosity	5	562.418385833997	not applicable	not applicable	not applicable	not applicable	not applicable	not applicable	not applicable	not applicable	not applicable	not applicable	not applicable	not applicable
564.002	7.999	21	04_S9_combined_small.mp4	fixationPostCuriosity	not applicable	not applicable	not applicable	not applicable	not applicable	not applicable	not applicable	not applicable	not applicable	not applicable	not applicable	not applicable	not applicable	not applicable
573.996	6.039	22	18_Trick4_combined_small.mp4	displayMockVid	not applicable	not applicable	not applicable	not applicable	not applicable	not applicable	not applicable	not applicable	not applicable	not applicable	not applicable	not applicable	not applicable	not applicable
580.036	47.818	22	18_Trick4_combined_small.mp4	displayVid	not applicable	not applicable	no recall	forgotten	forgotten	The magician puts the mobile phone inside the balloon with a simple gesture of his hands.	5	remembered	remembered	remembered	remembered	remembered	remembered	remembered
628.001	4	22	18_Trick4_combined_small.mp4	fixationPostVid	not applicable	not applicable	not applicable	not applicable	not applicable	not applicable	not applicable	not applicable	not applicable	not applicable	not applicable	not applicable	not applicable	not applicable
632.002	5.998	22	18_Trick4_combined_small.mp4	displayAnswer	31 or more	632.361911647982	not applicable	not applicable	not applicable	not applicable	not applicable	not applicable	not applicable	not applicable	not applicable	not applicable	not applicable	not applicable
638	0.049	22	18_Trick4_combined_small.mp4	fixationPostAnswer	not applicable	not applicable	not applicable	not applicable	not applicable	not applicable	not applicable	not applicable	not applicable	not applicable	not applicable	not applicable	not applicable	not applicable
638.05	5.948	22	18_Trick4_combined_small.mp4	displayCuriosity	3	639.892248635995	not applicable	not applicable	not applicable	not applicable	not applicable	not applicable	not applicable	not applicable	not applicable	not applicable	not applicable	not applicable
643.997	4.003	22	18_Trick4_combined_small.mp4	fixationPostCuriosity	not applicable	not applicable	not applicable	not applicable	not applicable	not applicable	not applicable	not applicable	not applicable	not applicable	not applicable	not applicable	not applicable	not applicable
650.001	6.034	23	24_Trick28_combined_small.mp4	displayMockVid	not applicable	not applicable	not applicable	not applicable	not applicable	not applicable	not applicable	not applicable	not applicable	not applicable	not applicable	not applicable	not applicable	not applicable
656.035	40.454	23	24_Trick28_combined_small.mp4	displayVid	not applicable	not applicable	the magician joind all of the hoops together. 	remembered	remembered	Starting with small rings, the magician merges them so that there are less rings in total, but they are larger in size.	2	forgotten	forgotten	forgotten	remembered	remembered	remembered	remembered
698.002	3.997	23	24_Trick28_combined_small.mp4	fixationPostVid	not applicable	not applicable	not applicable	not applicable	not applicable	not applicable	not applicable	not applicable	not applicable	not applicable	not applicable	not applicable	not applicable	not applicable
701.999	6.001	23	24_Trick28_combined_small.mp4	displayAnswer	21 to 30	702.996930303983	not applicable	not applicable	not applicable	not applicable	not applicable	not applicable	not applicable	not applicable	not applicable	not applicable	not applicable	not applicable
708	0.049	23	24_Trick28_combined_small.mp4	fixationPostAnswer	not applicable	not applicable	not applicable	not applicable	not applicable	not applicable	not applicable	not applicable	not applicable	not applicable	not applicable	not applicable	not applicable	not applicable
708.049	5.949	23	24_Trick28_combined_small.mp4	displayCuriosity	4	709.870256263996	not applicable	not applicable	not applicable	not applicable	not applicable	not applicable	not applicable	not applicable	not applicable	not applicable	not applicable	not applicable
713.998	4.002	23	24_Trick28_combined_small.mp4	fixationPostCuriosity	not applicable	not applicable	not applicable	not applicable	not applicable	not applicable	not applicable	not applicable	not applicable	not applicable	not applicable	not applicable	not applicable	not applicable
719.999	6.035	24	22_K18_combined_small.mp4	displayMockVid	not applicable	not applicable	not applicable	not applicable	not applicable	not applicable	not applicable	not applicable	not applicable	not applicable	not applicable	not applicable	not applicable	not applicable
726.034	22.209	24	22_K18_combined_small.mp4	displayVid	not applicable	not applicable	the posters changed colour after the magician flipped and folded them 	forgotten	forgotten	A pack of cards appears from a single piece of paper.	1	remembered	forgotten	forgotten	forgotten	forgotten	forgotten	forgotten
749.991	10.006	24	22_K18_combined_small.mp4	fixationPostVid	not applicable	not applicable	not applicable	not applicable	not applicable	not applicable	not applicable	not applicable	not applicable	not applicable	not applicable	not applicable	not applicable	not applicable
759.997	6.002	24	22_K18_combined_small.mp4	displayAnswer	11 to 20	760.59581757398	not applicable	not applicable	not applicable	not applicable	not applicable	not applicable	not applicable	not applicable	not applicable	not applicable	not applicable	not applicable
765.999	0.048	24	22_K18_combined_small.mp4	fixationPostAnswer	not applicable	not applicable	not applicable	not applicable	not applicable	not applicable	not applicable	not applicable	not applicable	not applicable	not applicable	not applicable	not applicable	not applicable
766.047	5.951	24	22_K18_combined_small.mp4	displayCuriosity	5	769.138364810002	not applicable	not applicable	not applicable	not applicable	not applicable	not applicable	not applicable	not applicable	not applicable	not applicable	not applicable	not applicable
771.999	3.999	24	22_K18_combined_small.mp4	fixationPostCuriosity	not applicable	not applicable	not applicable	not applicable	not applicable	not applicable	not applicable	not applicable	not applicable	not applicable	not applicable	not applicable	not applicable	not applicable
