onset	duration	trial	stim_file	event	response	response_timestamp	response_recall	trial_type_cuedRecallStrict	trial_type_cuedRecallLenient	response_recognition	response_confidence	trial_type_allConf	trial_type_highConf	trial_type_aboveAvgConf	trial_type_rememberedStrictAboveAvg	trial_type_rememberedLenientAboveAvg	trial_type_rememberedStrictHigh	trial_type_rememberedLenientHigh
2.002	6.007	1	16_H19_combined_small.mp4	displayMockVid	not applicable	not applicable	not applicable	not applicable	not applicable	not applicable	not applicable	not applicable	not applicable	not applicable	not applicable	not applicable	not applicable	not applicable
8.009	23.181	1	16_H19_combined_small.mp4	displayVid	not applicable	not applicable	no recall	forgotten	forgotten	The magician places paper in volunteer's hand and sets it alight, revealing a red sponge ball.	2	remembered	forgotten	forgotten	forgotten	forgotten	forgotten	forgotten
32.007	3.999	1	16_H19_combined_small.mp4	fixationPostVid	not applicable	not applicable	not applicable	not applicable	not applicable	not applicable	not applicable	not applicable	not applicable	not applicable	not applicable	not applicable	not applicable	not applicable
36.006	6	1	16_H19_combined_small.mp4	displayAnswer	31 or more	38.0189168809993	not applicable	not applicable	not applicable	not applicable	not applicable	not applicable	not applicable	not applicable	not applicable	not applicable	not applicable	not applicable
42.005	0.067	1	16_H19_combined_small.mp4	fixationPostAnswer	not applicable	not applicable	not applicable	not applicable	not applicable	not applicable	not applicable	not applicable	not applicable	not applicable	not applicable	not applicable	not applicable	not applicable
42.072	5.946	1	16_H19_combined_small.mp4	displayCuriosity	3	47.0796053529994	not applicable	not applicable	not applicable	not applicable	not applicable	not applicable	not applicable	not applicable	not applicable	not applicable	not applicable	not applicable
48.018	4.003	1	16_H19_combined_small.mp4	fixationPostCuriosity	not applicable	not applicable	not applicable	not applicable	not applicable	not applicable	not applicable	not applicable	not applicable	not applicable	not applicable	not applicable	not applicable	not applicable
54.006	6.002	2	13_Trick6_short_combined_small.mp4	displayMockVid	not applicable	not applicable	not applicable	not applicable	not applicable	not applicable	not applicable	not applicable	not applicable	not applicable	not applicable	not applicable	not applicable	not applicable
60.008	37.695	2	13_Trick6_short_combined_small.mp4	displayVid	not applicable	not applicable	The ball would appear either in his hand or under the tub	forgotten	remembered	The magician puts the ball under the cup and makes it disappear.	3	forgotten	forgotten	forgotten	forgotten	remembered	forgotten	remembered
98.004	4.002	2	13_Trick6_short_combined_small.mp4	fixationPostVid	not applicable	not applicable	not applicable	not applicable	not applicable	not applicable	not applicable	not applicable	not applicable	not applicable	not applicable	not applicable	not applicable	not applicable
102.006	5.999	2	13_Trick6_short_combined_small.mp4	displayAnswer	21 to 30	104.623398637	not applicable	not applicable	not applicable	not applicable	not applicable	not applicable	not applicable	not applicable	not applicable	not applicable	not applicable	not applicable
108.005	0.049	2	13_Trick6_short_combined_small.mp4	fixationPostAnswer	not applicable	not applicable	not applicable	not applicable	not applicable	not applicable	not applicable	not applicable	not applicable	not applicable	not applicable	not applicable	not applicable	not applicable
108.054	5.951	2	13_Trick6_short_combined_small.mp4	displayCuriosity	4	111.866043589	not applicable	not applicable	not applicable	not applicable	not applicable	not applicable	not applicable	not applicable	not applicable	not applicable	not applicable	not applicable
114.005	8	2	13_Trick6_short_combined_small.mp4	fixationPostCuriosity	not applicable	not applicable	not applicable	not applicable	not applicable	not applicable	not applicable	not applicable	not applicable	not applicable	not applicable	not applicable	not applicable	not applicable
124.005	6.025	3	27_S31_combined_small.mp4	displayMockVid	not applicable	not applicable	not applicable	not applicable	not applicable	not applicable	not applicable	not applicable	not applicable	not applicable	not applicable	not applicable	not applicable	not applicable
130.03	21.024	3	27_S31_combined_small.mp4	displayVid	not applicable	not applicable	The magician took something out of the envelope sealed it and it re-put the item into the sealed envelope.. I think?	forgotten	forgotten	As the magician turns around the envelope, writing appears on it.	1	forgotten	forgotten	forgotten	forgotten	forgotten	forgotten	forgotten
151.994	4.003	3	27_S31_combined_small.mp4	fixationPostVid	not applicable	not applicable	not applicable	not applicable	not applicable	not applicable	not applicable	not applicable	not applicable	not applicable	not applicable	not applicable	not applicable	not applicable
155.996	6.004	3	27_S31_combined_small.mp4	displayAnswer	31 or more	157.287735412	not applicable	not applicable	not applicable	not applicable	not applicable	not applicable	not applicable	not applicable	not applicable	not applicable	not applicable	not applicable
162.001	0.049	3	27_S31_combined_small.mp4	fixationPostAnswer	not applicable	not applicable	not applicable	not applicable	not applicable	not applicable	not applicable	not applicable	not applicable	not applicable	not applicable	not applicable	not applicable	not applicable
162.05	5.954	3	27_S31_combined_small.mp4	displayCuriosity	3	166.212493261	not applicable	not applicable	not applicable	not applicable	not applicable	not applicable	not applicable	not applicable	not applicable	not applicable	not applicable	not applicable
168.004	10.001	3	27_S31_combined_small.mp4	fixationPostCuriosity	not applicable	not applicable	not applicable	not applicable	not applicable	not applicable	not applicable	not applicable	not applicable	not applicable	not applicable	not applicable	not applicable	not applicable
179.996	6.024	4	26_S30_combined_small.mp4	displayMockVid	not applicable	not applicable	not applicable	not applicable	not applicable	not applicable	not applicable	not applicable	not applicable	not applicable	not applicable	not applicable	not applicable	not applicable
186.02	25.181	4	26_S30_combined_small.mp4	displayVid	not applicable	not applicable	The string inside the wands stretched/transferred from one wand to the other	remembered	remembered	The magician pulls string through two sticks which appear to be connected. However he then reveals thw two sticks are not connected at all.	4	remembered	remembered	remembered	remembered	remembered	remembered	remembered
212.005	4	4	26_S30_combined_small.mp4	fixationPostVid	not applicable	not applicable	not applicable	not applicable	not applicable	not applicable	not applicable	not applicable	not applicable	not applicable	not applicable	not applicable	not applicable	not applicable
216.004	5.999	4	26_S30_combined_small.mp4	displayAnswer	21 to 30	218.095704067	not applicable	not applicable	not applicable	not applicable	not applicable	not applicable	not applicable	not applicable	not applicable	not applicable	not applicable	not applicable
222.003	0.051	4	26_S30_combined_small.mp4	fixationPostAnswer	not applicable	not applicable	not applicable	not applicable	not applicable	not applicable	not applicable	not applicable	not applicable	not applicable	not applicable	not applicable	not applicable	not applicable
222.054	5.949	4	26_S30_combined_small.mp4	displayCuriosity	5	226.932996396	not applicable	not applicable	not applicable	not applicable	not applicable	not applicable	not applicable	not applicable	not applicable	not applicable	not applicable	not applicable
228.003	3.998	4	26_S30_combined_small.mp4	fixationPostCuriosity	not applicable	not applicable	not applicable	not applicable	not applicable	not applicable	not applicable	not applicable	not applicable	not applicable	not applicable	not applicable	not applicable	not applicable
234.002	6.037	5	10_S27_combined_small.mp4	displayMockVid	not applicable	not applicable	not applicable	not applicable	not applicable	not applicable	not applicable	not applicable	not applicable	not applicable	not applicable	not applicable	not applicable	not applicable
240.038	31.565	5	10_S27_combined_small.mp4	displayVid	not applicable	not applicable	water was poured between the two cups but I cannot recall the trick	forgotten	forgotten	The magician pours water into a cup from the bottle and then pours the water into another cup but when he tips it upside down, no water spills out.	4	remembered	remembered	remembered	remembered	remembered	remembered	remembered
271.997	4.002	5	10_S27_combined_small.mp4	fixationPostVid	not applicable	not applicable	not applicable	not applicable	not applicable	not applicable	not applicable	not applicable	not applicable	not applicable	not applicable	not applicable	not applicable	not applicable
276	6.003	5	10_S27_combined_small.mp4	displayAnswer	11 to 20	276.726067468	not applicable	not applicable	not applicable	not applicable	not applicable	not applicable	not applicable	not applicable	not applicable	not applicable	not applicable	not applicable
282.003	0.049	5	10_S27_combined_small.mp4	fixationPostAnswer	not applicable	not applicable	not applicable	not applicable	not applicable	not applicable	not applicable	not applicable	not applicable	not applicable	not applicable	not applicable	not applicable	not applicable
282.052	5.95	5	10_S27_combined_small.mp4	displayCuriosity	6	286.620384688	not applicable	not applicable	not applicable	not applicable	not applicable	not applicable	not applicable	not applicable	not applicable	not applicable	not applicable	not applicable
288.002	4	5	10_S27_combined_small.mp4	fixationPostCuriosity	not applicable	not applicable	not applicable	not applicable	not applicable	not applicable	not applicable	not applicable	not applicable	not applicable	not applicable	not applicable	not applicable	not applicable
293.995	6.041	6	25_S25_combined_small.mp4	displayMockVid	not applicable	not applicable	not applicable	not applicable	not applicable	not applicable	not applicable	not applicable	not applicable	not applicable	not applicable	not applicable	not applicable	not applicable
300.036	52.65	6	25_S25_combined_small.mp4	displayVid	not applicable	not applicable	no recall	forgotten	forgotten	The magician makes a silk handkerchief appear inside a bread roll.	3	remembered	forgotten	forgotten	forgotten	forgotten	forgotten	forgotten
353.989	4.002	6	25_S25_combined_small.mp4	fixationPostVid	not applicable	not applicable	not applicable	not applicable	not applicable	not applicable	not applicable	not applicable	not applicable	not applicable	not applicable	not applicable	not applicable	not applicable
357.991	6.006	6	25_S25_combined_small.mp4	displayAnswer	31 or more	359.286055651	not applicable	not applicable	not applicable	not applicable	not applicable	not applicable	not applicable	not applicable	not applicable	not applicable	not applicable	not applicable
363.997	0.049	6	25_S25_combined_small.mp4	fixationPostAnswer	not applicable	not applicable	not applicable	not applicable	not applicable	not applicable	not applicable	not applicable	not applicable	not applicable	not applicable	not applicable	not applicable	not applicable
364.046	5.955	6	25_S25_combined_small.mp4	displayCuriosity	5	367.324423558	not applicable	not applicable	not applicable	not applicable	not applicable	not applicable	not applicable	not applicable	not applicable	not applicable	not applicable	not applicable
370.001	4.001	6	25_S25_combined_small.mp4	fixationPostCuriosity	not applicable	not applicable	not applicable	not applicable	not applicable	not applicable	not applicable	not applicable	not applicable	not applicable	not applicable	not applicable	not applicable	not applicable
376.002	6.026	7	24_Trick28_combined_small.mp4	displayMockVid	not applicable	not applicable	not applicable	not applicable	not applicable	not applicable	not applicable	not applicable	not applicable	not applicable	not applicable	not applicable	not applicable	not applicable
382.028	40.454	7	24_Trick28_combined_small.mp4	displayVid	not applicable	not applicable	The magician pulled his hands apart and the loops were linked together.	remembered	remembered	The magician links and unlinks several silver rings while they keep their shape.	5	remembered	remembered	remembered	remembered	remembered	remembered	remembered
423.989	4.003	7	24_Trick28_combined_small.mp4	fixationPostVid	not applicable	not applicable	not applicable	not applicable	not applicable	not applicable	not applicable	not applicable	not applicable	not applicable	not applicable	not applicable	not applicable	not applicable
427.993	6.004	7	24_Trick28_combined_small.mp4	displayAnswer	31 or more	428.987699382999	not applicable	not applicable	not applicable	not applicable	not applicable	not applicable	not applicable	not applicable	not applicable	not applicable	not applicable	not applicable
433.996	0.05	7	24_Trick28_combined_small.mp4	fixationPostAnswer	not applicable	not applicable	not applicable	not applicable	not applicable	not applicable	not applicable	not applicable	not applicable	not applicable	not applicable	not applicable	not applicable	not applicable
434.046	5.954	7	24_Trick28_combined_small.mp4	displayCuriosity	3	438.632783270999	not applicable	not applicable	not applicable	not applicable	not applicable	not applicable	not applicable	not applicable	not applicable	not applicable	not applicable	not applicable
440	4.001	7	24_Trick28_combined_small.mp4	fixationPostCuriosity	not applicable	not applicable	not applicable	not applicable	not applicable	not applicable	not applicable	not applicable	not applicable	not applicable	not applicable	not applicable	not applicable	not applicable
445.988	6.024	8	17_Trick37_combined_small.mp4	displayMockVid	not applicable	not applicable	not applicable	not applicable	not applicable	not applicable	not applicable	not applicable	not applicable	not applicable	not applicable	not applicable	not applicable	not applicable
452.011	46.298	8	17_Trick37_combined_small.mp4	displayVid	not applicable	not applicable	The elastic bands were joined together.	forgotten	forgotten	An elastic band visually travels from finger to finger.	3	remembered	forgotten	forgotten	forgotten	forgotten	forgotten	forgotten
499.994	6.005	8	17_Trick37_combined_small.mp4	fixationPostVid	not applicable	not applicable	not applicable	not applicable	not applicable	not applicable	not applicable	not applicable	not applicable	not applicable	not applicable	not applicable	not applicable	not applicable
505.999	6.001	8	17_Trick37_combined_small.mp4	displayAnswer	21 to 30	510.200001841	not applicable	not applicable	not applicable	not applicable	not applicable	not applicable	not applicable	not applicable	not applicable	not applicable	not applicable	not applicable
512	0.049	8	17_Trick37_combined_small.mp4	fixationPostAnswer	not applicable	not applicable	not applicable	not applicable	not applicable	not applicable	not applicable	not applicable	not applicable	not applicable	not applicable	not applicable	not applicable	not applicable
512.049	5.95	8	17_Trick37_combined_small.mp4	displayCuriosity	4	517.532901879	not applicable	not applicable	not applicable	not applicable	not applicable	not applicable	not applicable	not applicable	not applicable	not applicable	not applicable	not applicable
517.999	4.001	8	17_Trick37_combined_small.mp4	fixationPostCuriosity	not applicable	not applicable	not applicable	not applicable	not applicable	not applicable	not applicable	not applicable	not applicable	not applicable	not applicable	not applicable	not applicable	not applicable
523.995	6.023	9	08_S12_combined_small.mp4	displayMockVid	not applicable	not applicable	not applicable	not applicable	not applicable	not applicable	not applicable	not applicable	not applicable	not applicable	not applicable	not applicable	not applicable	not applicable
530.018	41.895	9	08_S12_combined_small.mp4	displayVid	not applicable	not applicable	The magician placed a black dot or hole punched the corner of the card. He moved the hole around the car eventually pulling it off showing the card unblemished.	remembered	remembered	The magician punches a hole in the card. He then moves the hole from one corner to another before finally revealing that it is actually a black spot on the card.	6	remembered	remembered	remembered	remembered	remembered	remembered	remembered
571.997	4.001	9	08_S12_combined_small.mp4	fixationPostVid	not applicable	not applicable	not applicable	not applicable	not applicable	not applicable	not applicable	not applicable	not applicable	not applicable	not applicable	not applicable	not applicable	not applicable
575.998	6.001	9	08_S12_combined_small.mp4	displayAnswer	31 or more	577.239401778	not applicable	not applicable	not applicable	not applicable	not applicable	not applicable	not applicable	not applicable	not applicable	not applicable	not applicable	not applicable
581.999	0.049	9	08_S12_combined_small.mp4	fixationPostAnswer	not applicable	not applicable	not applicable	not applicable	not applicable	not applicable	not applicable	not applicable	not applicable	not applicable	not applicable	not applicable	not applicable	not applicable
582.048	5.95	9	08_S12_combined_small.mp4	displayCuriosity	3	587.701074681	not applicable	not applicable	not applicable	not applicable	not applicable	not applicable	not applicable	not applicable	not applicable	not applicable	not applicable	not applicable
587.998	4	9	08_S12_combined_small.mp4	fixationPostCuriosity	not applicable	not applicable	not applicable	not applicable	not applicable	not applicable	not applicable	not applicable	not applicable	not applicable	not applicable	not applicable	not applicable	not applicable
593.994	6.039	10	23_K10_combined_small.mp4	displayMockVid	not applicable	not applicable	not applicable	not applicable	not applicable	not applicable	not applicable	not applicable	not applicable	not applicable	not applicable	not applicable	not applicable	not applicable
600.034	23.414	10	23_K10_combined_small.mp4	displayVid	not applicable	not applicable	The clips were joined together.	remembered	remembered	The safety pins magically interlock without breaking the seal.	5	remembered	remembered	remembered	remembered	remembered	remembered	remembered
623.999	5.999	10	23_K10_combined_small.mp4	fixationPostVid	not applicable	not applicable	not applicable	not applicable	not applicable	not applicable	not applicable	not applicable	not applicable	not applicable	not applicable	not applicable	not applicable	not applicable
629.998	6.001	10	23_K10_combined_small.mp4	displayAnswer	31 or more	631.475302727	not applicable	not applicable	not applicable	not applicable	not applicable	not applicable	not applicable	not applicable	not applicable	not applicable	not applicable	not applicable
635.999	0.049	10	23_K10_combined_small.mp4	fixationPostAnswer	not applicable	not applicable	not applicable	not applicable	not applicable	not applicable	not applicable	not applicable	not applicable	not applicable	not applicable	not applicable	not applicable	not applicable
636.047	5.95	10	23_K10_combined_small.mp4	displayCuriosity	4	639.112162963	not applicable	not applicable	not applicable	not applicable	not applicable	not applicable	not applicable	not applicable	not applicable	not applicable	not applicable	not applicable
641.997	6.001	10	23_K10_combined_small.mp4	fixationPostCuriosity	not applicable	not applicable	not applicable	not applicable	not applicable	not applicable	not applicable	not applicable	not applicable	not applicable	not applicable	not applicable	not applicable	not applicable
649.985	6.023	11	21_S15_combined_small.mp4	displayMockVid	not applicable	not applicable	not applicable	not applicable	not applicable	not applicable	not applicable	not applicable	not applicable	not applicable	not applicable	not applicable	not applicable	not applicable
656.008	31.989	11	21_S15_combined_small.mp4	displayVid	not applicable	not applicable	The ring was placed around the stem of the glass	remembered	remembered	The magician places a ring on the stem of the glass without breaking it.	4	remembered	remembered	remembered	remembered	remembered	remembered	remembered
689.998	4	11	21_S15_combined_small.mp4	fixationPostVid	not applicable	not applicable	not applicable	not applicable	not applicable	not applicable	not applicable	not applicable	not applicable	not applicable	not applicable	not applicable	not applicable	not applicable
693.998	5.999	11	21_S15_combined_small.mp4	displayAnswer	31 or more	695.040793208999	not applicable	not applicable	not applicable	not applicable	not applicable	not applicable	not applicable	not applicable	not applicable	not applicable	not applicable	not applicable
699.997	0.051	11	21_S15_combined_small.mp4	fixationPostAnswer	not applicable	not applicable	not applicable	not applicable	not applicable	not applicable	not applicable	not applicable	not applicable	not applicable	not applicable	not applicable	not applicable	not applicable
700.047	5.95	11	21_S15_combined_small.mp4	displayCuriosity	3	705.500871026	not applicable	not applicable	not applicable	not applicable	not applicable	not applicable	not applicable	not applicable	not applicable	not applicable	not applicable	not applicable
705.997	10	11	21_S15_combined_small.mp4	fixationPostCuriosity	not applicable	not applicable	not applicable	not applicable	not applicable	not applicable	not applicable	not applicable	not applicable	not applicable	not applicable	not applicable	not applicable	not applicable
717.985	6.023	12	12_H37_combined_small.mp4	displayMockVid	not applicable	not applicable	not applicable	not applicable	not applicable	not applicable	not applicable	not applicable	not applicable	not applicable	not applicable	not applicable	not applicable	not applicable
724.007	28.785	12	12_H37_combined_small.mp4	displayVid	not applicable	not applicable	no recall	forgotten	forgotten	The magician detaches his thumb, but when he turns his hands, the thumb is reattached.	5	forgotten	forgotten	forgotten	forgotten	forgotten	forgotten	forgotten
753.994	4.003	12	12_H37_combined_small.mp4	fixationPostVid	not applicable	not applicable	not applicable	not applicable	not applicable	not applicable	not applicable	not applicable	not applicable	not applicable	not applicable	not applicable	not applicable	not applicable
757.997	5.999	12	12_H37_combined_small.mp4	displayAnswer	31 or more	759.755589697	not applicable	not applicable	not applicable	not applicable	not applicable	not applicable	not applicable	not applicable	not applicable	not applicable	not applicable	not applicable
763.996	0.049	12	12_H37_combined_small.mp4	fixationPostAnswer	not applicable	not applicable	not applicable	not applicable	not applicable	not applicable	not applicable	not applicable	not applicable	not applicable	not applicable	not applicable	not applicable	not applicable
764.046	5.951	12	12_H37_combined_small.mp4	displayCuriosity	4	767.684788857	not applicable	not applicable	not applicable	not applicable	not applicable	not applicable	not applicable	not applicable	not applicable	not applicable	not applicable	not applicable
769.996	3.995	12	12_H37_combined_small.mp4	fixationPostCuriosity	not applicable	not applicable	not applicable	not applicable	not applicable	not applicable	not applicable	not applicable	not applicable	not applicable	not applicable	not applicable	not applicable	not applicable
